time,seconds_elapsed,z,y,x
1646167660415477500,0.0204775390625,0.24096038119494914,-0.9803618669480085,0.8716317353770137
1646167660425459500,0.03045947265625,0.1282096158057451,-0.8328674126967788,0.966099240578711
1646167660435442400,0.0404423828125,-0.14270283606052397,-0.6231929811254143,0.9974059407293796
1646167660445424600,0.050424560546875,-0.45972646623849867,-0.42659722683578727,0.9728165661349892
1646167660455406300,0.06040625,-0.7761071223378181,-0.1311427466481924,0.7905365566413849
1646167660465388500,0.070388427734375,-0.9675298579037189,0.13246873455494643,0.6506967087965458
1646167660475371300,0.080371337890625,-0.8330009759485721,0.25858663877844806,0.5634163386199623
1646167660485353500,0.090353515625,-0.4405670077383518,0.37201954121291636,0.42547121848054226
1646167660495335400,0.10033544921875,-0.16913082425892353,0.42120705823004245,0.2941620292242616
1646167660505318400,0.110318359375,-0.04355272600054741,0.36232466115057466,0.12163410987295209
1646167660515300600,0.120300537109375,0.13540683383345603,0.43835196203738447,0.09881371771246195
1646167660525282300,0.1302822265625,0.1844032121926546,0.45594723996073006,0.1577498908057809
1646167660535264500,0.140264404296875,0.13842062869668006,0.5183756390839814,0.29184447299689054
1646167660545247500,0.15024755859375,0.1332300743162632,0.5164379490196704,0.4722522588778287
1646167660555229400,0.1602294921875,0.03248480401933193,0.4619327441111207,0.5569992381192743
1646167660565211600,0.170211669921875,-0.14981822102367878,0.5100613997250795,0.4245558572012931
1646167660575194400,0.1801943359375,0.012038812839984894,0.7366705994844436,0.2807823962345719
1646167660585176600,0.190176513671875,0.40430093161463737,0.7554296604901551,0.41243630727529523
1646167660595158300,0.200158203125,0.7079466093033552,0.5756792425394058,0.5620628051191568
1646167660605140500,0.210140380859375,0.7354910343110561,0.4855231707960367,0.5204433852687478
1646167660615123500,0.22012353515625,0.7431868495106697,0.43968730229437347,0.6276081672191619
1646167660625105400,0.23010546875,0.7145423543065786,0.4128220917224884,0.7804355069309472
1646167660635087600,0.240087646484375,0.7725947303026914,0.43715690703392024,0.7465561798132956
1646167660645070600,0.250070556640625,0.6773439657688141,0.5948655890464782,0.5480556148156523
1646167660655052500,0.260052490234375,0.7826759793341159,0.6588461860477924,0.4260004299864173
1646167660665034500,0.270034423828125,1.0131167200803757,0.6711012719869613,0.20129750223979354
1646167660675016400,0.280016357421875,0.9812620306581258,0.6661661536723374,-0.0049805648915469646
1646167660684999400,0.28999951171875,0.6358218688130378,0.7113578790515661,-0.04220277269631624
1646167660694981400,0.2999814453125,0.39499417408704757,0.668938540995121,0.05196151177510619
1646167660704963300,0.30996337890625,0.6766536454170942,0.6086638127744197,-0.03445140965087339
1646167660714946600,0.319946533203125,1.0879431207448242,0.4092880723774433,-0.04786474398076534
1646167660724928300,0.32992822265625,1.5151245772093533,0.23561200590431688,0.1980585385848768
1646167660734910500,0.339910400390625,2.0549995159178973,0.1989344263702631,0.3106879974156618
1646167660744892400,0.349892333984375,2.7151006704628466,0.2168839245587587,0.37966158039867876
1646167660754875400,0.35987548828125,3.2252509175151585,0.416010074108839,0.38176761276721954
1646167660764857600,0.369857666015625,3.4671658229559656,0.9082008861005306,0.12281301745921373
1646167660774839300,0.37983935546875,3.5129555142283437,1.2823305513352155,-0.6916479470618069
1646167660784822500,0.389822509765625,3.204513249912858,1.4545084882050752,-0.6634195583779364
1646167660794804500,0.399804443359375,3.046597647151351,1.4789613769382237,-0.2433256490215659
1646167660804786400,0.409786376953125,3.232284469413757,1.4665405790433286,0.06162775026485324
1646167660814768600,0.4197685546875,3.643557578128576,1.3373238320216536,0.29221944378912446
1646167660824751400,0.42975146484375,4.061830920994281,1.109104274456203,0.684543960275501
1646167660834733600,0.439733642578125,4.518870340105891,1.1829989472284912,1.1932236963838339
1646167660844715300,0.44971533203125,4.649773432779312,1.368323365919292,1.7592016291201114
1646167660854698500,0.459698486328125,4.541864262202382,1.256465749977529,2.386367021007836
1646167660864680400,0.469680419921875,3.4356419729232788,0.7925964848458766,3.0594302407175302
1646167660874662400,0.479662353515625,1.5484844104975461,0.002673603123426437,3.404491924639046
1646167660884644600,0.48964453125,-0.5758090063989162,-1.187935819108784,2.6296499999314547
1646167660894627600,0.499627685546875,-2.081480695608258,-1.51987703243345,2.286146359106898
1646167660904609500,0.509609619140625,-0.4519102395296097,-1.8870587782263755,3.066593848736584
1646167660914591500,0.519591552734375,0.36630350165367126,-2.698165610013902,2.794672219827771
1646167660924574500,0.529574462890625,0.25393676714599134,-3.3180236014977096,2.1656045014500616
1646167660934556400,0.539556396484375,1.225706162315607,-3.5650326152071354,1.4810411058217285
1646167660944538400,0.549538330078125,2.0466601421177386,-4.183234948438406,1.3689540650382637
1646167660954520600,0.5595205078125,2.182380279684067,-4.981894678846001,1.4961784691989422
1646167660964503600,0.569503662109375,1.8583669367492197,-5.456165218743681,1.2771134012088179
1646167660974485500,0.579485595703125,1.4290671729564666,-5.826628762686252,0.97036245098114
1646167660984467500,0.589467529296875,1.3983774356603622,-5.810244029596448,1.0172732552379369
1646167660994450700,0.59945068359375,1.0447656577974558,-4.646442827051878,1.6096622250378132
1646167661004432400,0.609432373046875,0.9088982207149267,-1.8465043572589754,1.9004156879276035
1646167661014414600,0.61941455078125,0.6213157890766858,0.4859212302029133,1.1104401992350816
1646167661024397300,0.629397216796875,0.3380097195833921,0.7721820578485726,0.8543880473703146
1646167661034379500,0.639379638671875,-0.5237321976810694,0.6138017601847648,0.824241330909729
1646167661044361500,0.649361572265625,-1.1188900476723909,0.855724264410138,0.4327501965075731
1646167661054343400,0.659343505859375,-0.6055699384123087,1.026003381921351,0.5157727631092072
1646167661064326400,0.669326416015625,0.3502414246469736,1.1125739963933825,0.4443202227920294
1646167661074308400,0.679308349609375,1.0506149683475494,1.3738234246402978,0.8203314639896154
1646167661084290600,0.68929052734375,1.9289649060636758,1.637893171004951,1.1296937657594681
1646167661094273500,0.6992734375,2.596957690641284,2.0145432946279644,0.5270727402806282
1646167661104255500,0.70925537109375,2.627710556301474,2.6390222239106893,0.4155184911996126
1646167661114237400,0.719237548828125,2.8342297387123105,3.2089784126281735,0.7932511493623257
1646167661124220400,0.729220458984375,3.4298236420333383,3.687988256007433,0.258211960247159
1646167661134202400,0.739202392578125,2.336744327443838,5.123940512302518,0.12685294049978255
1646167661144184300,0.749184326171875,3.048359980648756,5.815971759593486,0.06853928321897983
1646167661154166500,0.75916650390625,3.3252357248336075,5.061071091413497,-0.1886550244182348
1646167661164149500,0.7691494140625,2.0970663872748614,5.184970442804694,0.26041911490261554
1646167661174131500,0.77913134765625,2.1272633726179597,6.198572316053509,0.3039911301255226
1646167661184113400,0.789113525390625,1.456205939772725,6.817822989293933,0.41829613921940323
1646167661194096600,0.7990966796875,0.7138397589951753,6.628727235370874,0.6140402451157569
1646167661204078300,0.809078369140625,0.4948118081450462,6.235134160253406,0.8779261593461036
1646167661214060500,0.819060546875,0.5816366896390914,6.382805432376265,0.9561094692230224
1646167661224043300,0.829043212890625,1.0826561202526093,6.576430646422505,0.8296604333490133
1646167661234025500,0.839025390625,1.3524141413867472,6.327078868979215,0.5573889680892229
1646167661244007400,0.84900732421875,1.6651380285441875,6.526835717648267,0.08212707906663418
1646167661253990400,0.858990478515625,1.9268641343921422,6.713841805815696,-0.5911188037335873
1646167661263972600,0.86897265625,2.135914588846266,6.837055513030291,-1.1429694269180297
1646167661273954300,0.878954345703125,2.001061589503288,7.345601247495412,-1.7651210822969674
1646167661283937500,0.8889375,1.7089520358294248,7.288900286108255,-1.9517986691623925
1646167661293919500,0.89891943359375,1.3808362260118126,6.8781146686494345,-1.7601988234639168
1646167661303901400,0.9089013671875,1.0749322480022907,6.352520768749714,-1.4718810632884503
1646167661313883600,0.918883544921875,0.9368030034676194,6.295720438641309,-1.0359989984959364
1646167661323866400,0.928866455078125,0.5268775099694728,6.145593005537987,-0.9418781147748231
1646167661333848600,0.9388486328125,-0.14737404274195431,6.086282738435268,-0.8341600828558207
1646167661343830300,0.948830322265625,-1.0283870621874929,6.1449681516379115,-0.9251280555039644
1646167661353813500,0.9588134765625,-1.763160011357069,6.062941610336304,-0.9526192890197038
1646167661363795500,0.96879541015625,-2.4878482043638823,6.017707799381017,-1.0630436572879551
1646167661373777400,0.97877734375,-3.098193978875875,5.712146643459796,-1.2929852163404225
1646167661383760400,0.988760498046875,-3.6376387094736096,5.692308555045724,-1.0348977592557669
1646167661393742600,0.99874267578125,-4.0949087224707,5.302135517504811,-0.9061720106214284
1646167661403724500,1.008724609375,-4.306805214005708,4.584367771410942,-0.8148761211931705
1646167661413707500,1.01870751953125,-4.591704397909343,3.908665143108368,-0.7467331438153981
1646167661423689500,1.028689453125,-4.679105910247564,3.1089824993938207,-0.7438982126504182
1646167661433671400,1.03867138671875,-4.537380394786596,2.589642399191856,-0.7937479929685592
1646167661443654700,1.048654541015625,-4.417948544198274,2.9722832876622673,-1.1803688909858465
1646167661453636400,1.05863623046875,-4.7658653252899645,2.977980622521043,-1.7218389899313449
1646167661463618600,1.06861865234375,-5.210953609845042,2.5023352871388194,-1.9484289004683493
1646167661473601300,1.078601318359375,-5.80324554901123,2.5921897455871106,-2.071933699584007
1646167661483583500,1.08858349609375,-6.102976683604717,2.6055980932146308,-2.5232307756513355
1646167661493565400,1.0985654296875,-5.767297452795505,2.1306676281034944,-2.854704955986142
1646167661503548400,1.10854833984375,-5.0209120995044705,1.272079790955782,-3.092502489235997
1646167661513530400,1.1185302734375,-4.6635973754704,0.5024702139437198,-3.346577788069844
1646167661523512300,1.12851220703125,-4.597828141486644,0.024939795467257497,-3.6550714903116224
1646167661533495600,1.13849560546875,-4.736401914918423,-0.0908224266976118,-4.073592085936665
1646167661543477500,1.1484775390625,-4.657915822702646,-0.2559995448946953,-4.53645977281034
1646167661553459500,1.15845947265625,-4.4986511434197425,-0.5938870994031429,-5.104812033462524
1646167661563442400,1.1684423828125,-4.684140981805324,-0.9315916985601186,-5.931433537507057
1646167661573424400,1.17842431640625,-4.737880755299329,-0.9246896640866994,-6.583917202785611
1646167661583406300,1.18840625,-4.527703050380945,-0.776319888305664,-6.687085900837182
1646167661593389600,1.1983896484375,-4.160097233957052,-0.8932675208628177,-6.863668794667721
1646167661603371300,1.208371337890625,-3.5697616895556448,-0.8117208720326423,-7.148412788009643
1646167661613353500,1.218353515625,-3.172120800352096,-0.6615460926562547,-7.327159581875801
1646167661623336400,1.22833642578125,-2.89611190212965,-0.5679232215851545,-7.536143693095445
1646167661633318400,1.238318359375,-2.5190029288232325,-0.32503274911046026,-8.003855897390842
1646167661643300600,1.248300537109375,-2.0399393094301224,-0.2416892799913883,-8.459490125879645
1646167661653283300,1.258283447265625,-1.8738170193374155,-0.5034574714154004,-8.569678931826353
1646167661663265500,1.268265625,-1.7888114622250197,-0.7496265271693467,-8.75790141004622
1646167661673247200,1.278247314453125,-1.5250257934987543,-0.8111831118941306,-9.132150317746401
1646167661683230500,1.28823046875,-1.311956020400673,-1.0335270554244518,-9.179568487003445
1646167661693212400,1.29821240234375,-1.22665191873312,-1.2214619488745928,-9.29709245814383
1646167661703194400,1.3081943359375,-1.1379214958786963,-1.0781588088333607,-9.395160033664107
1646167661713177300,1.31817724609375,-1.3783847412064671,-0.7561825246840715,-9.177868697348236
1646167661723159600,1.32815966796875,-2.015525291402638,-0.9067442575514316,-8.90141322440207
1646167661733141500,1.3381416015625,-2.3674469242215155,-1.060345504245162,-8.685915785765648
1646167661743124500,1.34812451171875,-2.691750190013647,-1.4656108969777821,-8.433492345792054
1646167661753106400,1.3581064453125,-3.210320474886894,-2.0995465136528013,-8.156035586848855
1646167661763088400,1.36808837890625,-3.503476907265186,-2.7955238682210446,-7.880174572664499
1646167661773071600,1.378071533203125,-3.4395676219344136,-3.4796564712166784,-7.718363131508231
1646167661783053300,1.38805322265625,-3.322497239780426,-3.857460441049933,-7.408211725187301
1646167661793035500,1.398035400390625,-2.895867571979761,-3.9696997497856614,-6.996636418655514
1646167661803018500,1.4080185546875,-2.3237036440849304,-3.7730969812333583,-6.491624119013547
1646167661813000400,1.41800048828125,-1.8201520646452902,-3.3995524224102494,-6.060165131360292
1646167661822982700,1.427982666015625,-1.5379519105672836,-2.9444331577062606,-5.645486598116159
1646167661832965400,1.43796533203125,-1.3826048431195317,-2.452905778059363,-5.338749968674779
1646167661842947600,1.447947509765625,-1.3897042998611926,-1.8549252718627451,-5.068516146722436
1646167661852930600,1.4579306640625,-1.5548714811861515,-1.3539853362262249,-4.874883626152575
1646167661862912500,1.46791259765625,-1.681511655718088,-1.097335802990198,-4.6389998175695535
1646167661872894500,1.47789453125,-1.751139903217554,-0.9455594336360692,-4.369723442472517
1646167661882877400,1.48787744140625,-1.6922048991680145,-0.7388865219682454,-4.068926724474132
1646167661892859400,1.497859375,-1.710314556354284,-0.5451940879046917,-3.6257629782408474
1646167661902841600,1.507841552734375,-1.6223510262191294,-0.2531973469555378,-3.0759049901783464
1646167661912824300,1.51782421875,-1.5719979725539683,0.23861235676407813,-2.744400999227166
1646167661922806300,1.52780615234375,-1.8029314652532338,0.7875678430289029,-2.4734540605694053
1646167661932788500,1.53778857421875,-2.037535755419731,1.2239257086396216,-2.4539684388548135
1646167661942771500,1.547771484375,-2.2534037809342147,1.539776787906885,-2.5878163528084754
1646167661952753400,1.55775341796875,-2.2308032420694826,1.7536603616058826,-2.6365917818933724
1646167661962735400,1.5677353515625,-1.8967197560191154,1.723360500410199,-2.480844170820713
1646167661972718300,1.57771826171875,-1.561567763954401,1.8359148664444684,-2.150357247957587
1646167661982700300,1.5877001953125,-1.6198130321741102,1.7598410960674284,-1.8481214370667933
1646167661992682200,1.59768212890625,-1.672968283778429,1.7105378437161445,-1.6494102980583905
1646167662002665200,1.607665283203125,-1.7808558270454407,1.6793161915004253,-1.442783563619852
1646167662012647400,1.6176474609375,-1.7935235854387281,1.7260867105036972,-1.256587038269639
1646167662022630100,1.627630126953125,-1.5569523791134356,1.865899085819721,-1.043745082578063
1646167662032612400,1.6376123046875,-1.4810674093067646,2.1256103447139263,-1.0457277808278798
1646167662042594600,1.647594482421875,-1.195828910446167,2.573340668210387,-1.1037380712479352
1646167662052577300,1.657577392578125,-0.6515396624267101,2.593788412955403,-0.8334259233623743
1646167662062559500,1.6675595703125,0.2191068613052368,2.471757778045535,-0.33548283145427704
1646167662072541200,1.677541259765625,0.7852823624402284,2.643900059080124,0.12245324423611163
1646167662082524400,1.6875244140625,0.7770844429373741,2.8204809070840478,0.526226352584362
1646167662092506400,1.69750634765625,0.43538931283950805,2.894780653525889,0.7877414460301398
1646167662102489300,1.7074892578125,0.2568325068538077,3.293781725166738,0.9026040890067816
1646167662112471300,1.71747119140625,0.08921152090225368,3.6328552745893594,1.1496896750837564
1646167662122453200,1.727453369140625,-0.10007946333196013,4.004112014736235,1.4550772280037403
1646167662132436200,1.737436279296875,-0.12629998279213905,4.561225673015415,1.5776754336684942
1646167662142418400,1.74741845703125,-0.19533786318302154,4.993734169721603,1.8034470135599374
1646167662152400100,1.757400146484375,-0.1175093580931425,5.3133337878674265,2.2466753494620324
1646167662162383400,1.76738330078125,0.033201500921323894,5.592430715233087,2.467173957386613
1646167662172365300,1.777365234375,0.15898768897242843,5.937036764341593,2.7230378932029007
1646167662182347300,1.78734716796875,0.2391056201737374,6.161915779307484,3.099222152879834
1646167662192330200,1.797330322265625,0.4006996922522783,6.24174568734765,3.369129227095842
1646167662202312200,1.807312255859375,0.566164906675741,6.328705008876323,3.536109010800719
1646167662212295200,1.817295166015625,0.6435159304469823,6.41772769267559,3.6141076117604967
1646167662222277400,1.82727734375,0.8408166181355714,6.542615470582247,3.6500340806663036
1646167662232259300,1.83725927734375,1.0613660794645547,6.693136286917328,3.7422465004175898
1646167662242242300,1.8472421875,0.997310079139471,6.825388456112146,3.8579391644775867
1646167662252224500,1.857224609375,0.8585475782025604,7.059349772199988,3.8843344194501634
1646167662262206200,1.867206298828125,0.6295967837531119,6.957756945163011,4.117995291286706
1646167662272189400,1.877189453125,0.5317419742006808,6.972914766806364,4.218254239371419
1646167662282171100,1.887171142578125,0.6288485957343131,7.313867554104328,3.8411891052067277
1646167662292154400,1.897154296875,0.8910164540003984,7.679320576408505,3.27871771928668
1646167662302136300,1.90713623046875,1.1472825408767908,7.9212612008124585,2.6842747395664452
1646167662312118300,1.9171181640625,1.3398252934485673,8.144794061866403,2.2865052555471657
1646167662322101200,1.927101318359375,1.4021148686230183,8.094917978063226,2.4205273570239543
1646167662332083200,1.937083251953125,1.1956846066046505,7.576231373333931,2.9793355442613363
1646167662342065400,1.9470654296875,0.6179577838856727,6.743920133215188,3.7367601779609916
1646167662352048400,1.95704833984375,0.07426694015078246,5.850442184472084,4.363720110404492
1646167662362030300,1.9670302734375,-0.3196208070643246,5.160864175552129,4.693104040461779
1646167662372013300,1.977013427734375,-0.6278525704342871,4.618743796004354,4.740131164574623
1646167662381995500,1.98699560546875,-0.6418038658320904,4.3466991252377625,4.546896411150693
1646167662391977200,1.996977294921875,-0.39490759178213775,4.381386407737434,4.162304388612508
1646167662401960400,2.00696044921875,0.012425766330957412,4.561859294743836,3.6542671881914135
1646167662411942100,2.016942138671875,0.36261458400785923,4.6842599320098754,3.2670980086416006
1646167662421925400,2.02692529296875,0.530874543716386,4.909736036086082,2.961059298336506
1646167662431907300,2.0369072265625,0.5015349789202213,5.202705421459674,2.6100895594149827
1646167662441889300,2.04688916015625,0.3178689218956977,5.3294069707900285,2.4215239668458697
1646167662451872300,2.056872314453125,0.10324527041912078,5.197534740823507,2.528763859859109
1646167662461854200,2.066854248046875,-0.11005779997818171,4.913438397735357,2.551471950751543
1646167662471837200,2.076837158203125,-0.19725034574083983,4.430747235494851,2.5856746646046638
1646167662481819400,2.0868193359375,-0.1602607045829296,3.8049990169286727,2.6935733137875792
1646167662491801300,2.09680126953125,-0.15760580615997313,3.1703356705009935,2.715670579305291
1646167662501784300,2.106784423828125,-0.16510756009221075,2.707731018477678,2.700476517304778
1646167662511766500,2.1167666015625,-0.2879267150312662,2.3001164322704075,2.685323371836543
1646167662521749200,2.126749267578125,-0.5273602519851177,2.0340970131427047,2.5524007560342548
1646167662531731500,2.1367314453125,-0.6837677882712334,1.8871271672874688,2.3061101197272538
1646167662541713200,2.146713134765625,-0.7921522482097149,1.7650182064443825,2.0734253994464873
1646167662551696400,2.1566962890625,-0.8553777159947902,1.4399737668961285,1.8412638262569903
1646167662561678300,2.16667822265625,-0.8569733876883983,1.0831307520270348,1.678887736955285
1646167662571660300,2.176660400390625,-0.7994341488461941,0.6933540203273296,1.5245634366840124
1646167662581643300,2.186643310546875,-0.6397013405948877,0.3620101883739233,1.2195382873356342
1646167662591625200,2.196625244140625,-0.42719307383708655,0.2628957341492176,0.6992927627265453
1646167662601608200,2.206608154296875,-0.29459428316168484,0.23943185645341872,0.07775485533177852
1646167662611590400,2.21659033203125,-0.22622283079028127,0.12095686819851398,-0.4191875351011753
1646167662621573400,2.226573486328125,-0.17520225312709808,0.016062077006697654,-1.0135241318374872
1646167662631555300,2.236555419921875,-0.24759989227466284,0.06850538094937801,-1.6787918753653763
1646167662641537500,2.24653759765625,-0.4615220809509977,0.16552958489656447,-2.2363106073141097
1646167662651520300,2.256520263671875,-0.7575789474785327,0.16490882264971732,-2.6577736861318346
1646167662661502500,2.26650244140625,-1.0111492193996905,0.25636311751008034,-3.2050305517852307
1646167662671485400,2.2764853515625,-1.1261083084881305,0.4182978927850723,-3.805219381681084
1646167662681467400,2.28646728515625,-1.225023440748453,0.405053211286664,-4.491389335723221
1646167662691449300,2.296449462890625,-1.4129168331444262,0.3899345526099205,-5.204491720354556
1646167662701432300,2.306432373046875,-1.5997393814384937,0.29314298837482927,-5.879460773685574
1646167662711414300,2.316414306640625,-1.6460288389265536,0.33444472057819363,-6.61015931302309
1646167662721397500,2.3263974609375,-1.5657769060820341,0.30865035410821434,-7.420686591356993
1646167662731379200,2.336379150390625,-1.2863164061009884,0.15388006363511084,-8.161338953953981
1646167662741361400,2.346361328125,-0.8655056537121534,-0.07334872932732105,-8.764628672474622
1646167662751344400,2.356344482421875,-0.3131365596115589,-0.38673487978577614,-9.028295975518226
1646167662761326300,2.366326416015625,0.10043488917350768,-0.7578881595581769,-9.11393193948865
1646167662771309300,2.376309326171875,0.5712836744615808,-1.0757517476916312,-9.147018801054358
1646167662781291300,2.386291259765625,0.9681669867634772,-1.4160259050756692,-9.1944428155303
1646167662791273500,2.3962734375,1.5120920776456594,-1.6368997760534285,-9.330153600746392
1646167662801256400,2.40625634765625,1.766003710350394,-1.6998662275761365,-9.549467967322467
1646167662811238400,2.41623828125,1.766550238317251,-1.9207950436115264,-9.656482819408177
1646167662821221400,2.426221435546875,1.7330653173446655,-2.129357130026817,-9.762271929091215
1646167662831203300,2.436203369140625,1.5906173328280448,-2.139922947704792,-10.04792543849349
1646167662841186300,2.446186279296875,1.196099617146328,-2.7940853598505258,-9.656040920859574
1646167662851168500,2.45616845703125,1.1636018075149506,-2.5269828216612336,-10.155235474133491
1646167662861150200,2.466150146484375,0.9974591322213411,-2.0883938359975813,-10.558290205079317
1646167662871133400,2.476133544921875,0.6227250713527203,-1.6783090602844952,-10.776975041580199
1646167662881115400,2.486115478515625,0.30486791296005245,-1.248127252960205,-10.835285776251554
1646167662891098400,2.496098388671875,-0.046636663490533824,-1.062007299977541,-10.82197738186717
1646167662901080300,2.506080322265625,-0.391166797818616,-1.553725233760476,-10.619684877240656
1646167662911062300,2.516062255859375,-0.8712883287668227,-2.2235914109945294,-10.233023647212981
1646167662921045200,2.526045166015625,-1.4045242678523062,-2.9004046308875084,-9.824108499801158
1646167662931028000,2.536028076171875,-1.5969325073242187,-3.3044594787865873,-9.46719943395853
1646167662941011000,2.546010986328125,-1.6166753186702727,-3.2309014906227587,-9.062253774699569
1646167662950993200,2.5559931640625,-1.560120487755537,-2.909433155995607,-8.48911369524896
1646167662960976000,2.565975830078125,-1.4927502483159303,-2.338208554777503,-7.8694117711097
1646167662970958000,2.5759580078125,-1.424524853351712,-1.4373691373556852,-7.22753308647573
1646167662980939800,2.585939697265625,-1.5097434686928988,-0.5453308660268783,-6.5510992212891574
1646167662990923000,2.595923095703125,-1.5546832651376723,0.037626843082904815,-5.9608232981204985
1646167663000905000,2.605905029296875,-1.3364368200540542,0.39795302389264103,-5.518410370254516
1646167663010888000,2.615887939453125,-0.9075345311462879,0.5598492207229137,-5.007324303656816
1646167663020870000,2.625869873046875,-0.8350485561281442,0.48648763191401956,-4.026135045973956
1646167663030851800,2.635851806640625,-0.9953776497721671,0.653580228343606,-3.0798247939705847
1646167663040834800,2.645834716796875,-1.502823314040899,1.4877245291084051,-2.6097990520358083
1646167663050817000,2.655817138671875,-2.0939339344680308,2.1337527346372602,-2.7065891549661756
1646167663060799700,2.6657998046875,-2.511826169061661,2.6834254292607307,-3.149925919678807
1646167663070782000,2.675781982421875,-2.8472458721518517,3.1104005494982,-3.0860587199240923
1646167663080765000,2.685764892578125,-3.286258051663637,3.1158979778707026,-2.495674660205841
1646167663090747000,2.695746826171875,-3.5756513321161267,2.8596050029873847,-1.7147475703656672
1646167663100729000,2.70572900390625,-3.473900099647045,2.4400369441360232,-0.8411135552555322
1646167663110712000,2.715712158203125,-2.9747172368109225,2.1635586748361586,-0.1862286740541458
1646167663120694000,2.725694091796875,-2.335764668756723,2.1231518456459044,0.24422201333940027
1646167663130677000,2.735677001953125,-1.6517115607380866,2.0585721137076614,0.5990460896015167
1646167663140659000,2.745658935546875,-0.9305436508119106,1.970483495888114,0.9063397684037685
1646167663150642000,2.755641845703125,-0.25153438217937946,1.8956430666983126,1.1961539046168326
1646167663160624000,2.7656240234375,0.22588497713804243,1.7069518019229173,1.3993097480744123
1646167663170605800,2.775605712890625,0.7417066939555108,1.6623223866015673,1.5194360106676816
1646167663180589000,2.785589111328125,1.1532178492099046,1.6377654529720544,1.7562521316647528
1646167663190571000,2.795571044921875,1.2716297091007231,1.83654615008533,1.9638889199286698
1646167663200554000,2.805553955078125,1.3300760528504847,2.0344126549631354,2.1433903315544125
1646167663210536000,2.815535888671875,1.1940868890844285,2.3474995302140713,2.2018641478329894
1646167663220519200,2.825519287109375,0.8775060342378914,2.6528303845107555,2.285741869959235
1646167663230500900,2.8355009765625,0.5874883382767438,2.9769904424399134,2.4436580572426316
1646167663240483000,2.845483154296875,0.3508540035873651,3.3565342416778203,2.6933324907690284
1646167663250465800,2.8554658203125,0.11257891595363616,3.6186774038940666,2.8631898757368326
1646167663260448000,2.865447998046875,0.18035525197610258,3.857244460211694,2.763437708130479
1646167663270431000,2.875430908203125,0.44701260368116197,4.033778546464443,2.6083313175708054
1646167663280413000,2.885412841796875,0.7093758383888751,4.177810293041169,2.5178578504413367
1646167663290396000,2.89539599609375,0.9646523297060281,4.377279264679551,2.419190555462241
1646167663300377900,2.9053779296875,1.055136902751401,4.673152554801106,2.4508739799708126
1646167663310360000,2.915360107421875,0.9697112935960293,5.127277547770738,2.6227041263163087
1646167663320343000,2.925343017578125,0.6632733548402786,5.715747298300266,2.7875714479118585
1646167663330325000,2.935324951171875,0.3601660948771983,6.316545784527063,2.9660137058734892
1646167663340308000,2.945307861328125,0.07287117494344711,6.75415628054738,3.1947493962675333
1646167663350290200,2.955290283203125,-0.21848894860260187,7.081878999394178,3.3260914648801085
1646167663360273000,2.96527294921875,-0.37433249433040616,7.305857266128063,3.2998996235251425
1646167663370255000,2.975255126953125,-0.41606096404585985,7.357925307017564,3.207707662039995
1646167663380236800,2.98523681640625,-0.4078670631309971,7.149567218741774,3.17672040310204
1646167663390220000,2.995219970703125,-0.3389694679936394,6.792213331741094,3.189385823407769
1646167663400202000,3.005201904296875,-0.28776834613177926,6.3325628533482545,3.340253261223435
1646167663410185000,3.01518505859375,-0.14630403889026491,6.053269526627659,3.5453298436105247
1646167663420167000,3.0251669921875,0.16890402976572513,6.074043434587121,3.7872178610444065
1646167663430150100,3.035150146484375,0.6010824907999486,6.519248038998246,4.072926315504312
1646167663440131800,3.0451318359375,1.0443472131896763,7.059517529982328,4.207731676313281
1646167663450115000,3.055114990234375,1.6345593504071234,7.5229364209979765,4.124406327372789
1646167663460096800,3.0650966796875,2.076297740012407,7.753148613685369,4.236172173377871
1646167663470079000,3.075078857421875,1.9947849934518336,7.513499899610877,4.536836204907297
1646167663480062000,3.08506201171875,1.5569471184164285,6.977012265253067,4.923359487769007
1646167663490044000,3.0950439453125,0.9188176302481442,6.514057484617829,5.050220611575246
1646167663500027000,3.10502685546875,0.33575171152353284,6.299882234495878,4.937441204613447
1646167663510009000,3.115009033203125,0.03593936491999775,6.424366107776761,4.697570956742763
1646167663519991800,3.12499169921875,-0.12589600510112942,6.753896752828359,4.384726658076048
1646167663529974000,3.13497412109375,-0.09121752696242183,7.153488776099682,4.021667252910137
1646167663539956000,3.1449560546875,0.057414662614464755,7.611936308443545,3.648859776189923
1646167663549939000,3.15493896484375,0.19830606533885,7.962691527831554,3.283662189951539
1646167663559921200,3.164921142578125,0.186058578184247,7.986313810959458,3.0433675791889425
1646167663569903900,3.17490380859375,0.2084276463806629,7.85366942757666,2.7825007205188275
1646167663579886000,3.184885986328125,0.15469550820384173,7.59044226951599,2.5074422548890114
1646167663589869000,3.194869140625,0.12148757754173128,7.077850474530458,2.2299439948916433
1646167663599851000,3.20485107421875,0.07599369087815284,6.375341672366857,1.902770142099261
1646167663609833000,3.2148330078125,0.02393445434961468,5.597207428115606,1.6543600294202565
1646167663619816200,3.224816162109375,-0.11400633667455985,4.752647531798481,1.6871026075929403
1646167663629798000,3.2347978515625,-0.21437221573246643,3.873861540752649,1.705057366478443
1646167663639781000,3.244781005859375,-0.2501286070346832,3.0517636516124007,1.6520301251679659
1646167663649762800,3.2547626953125,-0.249545254188776,2.33963069653511,1.483231893864274
1646167663659746000,3.26474609375,-0.27461247542798517,1.7553280025571583,1.1375988397955894
1646167663669728000,3.27472802734375,-0.2500128717005253,1.267672495907545,0.6736527100354432
1646167663679711000,3.2847109375,-0.18211831612586973,0.9217454273283481,0.1816150427788496
1646167663689693000,3.29469287109375,-0.1328676707446575,0.6757394531816244,-0.39163258869946
1646167663699675000,3.3046748046875,-0.10521510918736457,0.4689397002637386,-0.8576093475043773
1646167663709657900,3.314657958984375,-0.18030396018028258,0.35907004326879977,-1.340723119071126
1646167663719640000,3.32464013671875,-0.29557869108915324,0.2797194431781769,-1.8848025237321853
1646167663729622800,3.334622802734375,-0.39194180077910423,0.3126864777565002,-2.495538466605544
1646167663739605000,3.34460498046875,-0.6603788024425506,0.34886136846542354,-2.918471033453941
1646167663749588000,3.354587890625,-1.0634159977316855,0.30349720912873746,-3.17576938598752
1646167663759570000,3.36456982421875,-1.3686743713140488,0.2667249370485544,-3.461502974888682
1646167663769553000,3.374552978515625,-1.5970517497897148,0.1656160941362381,-3.8741988098829983
1646167663779535000,3.38453515625,-1.6921674897670744,0.06583586947917938,-4.319031658372283
1646167663789516800,3.394516845703125,-1.8289643166542051,-0.07361293322145938,-4.670754846009612
1646167663799500000,3.4045,-1.9087305118083953,-0.24428105005025863,-5.095791691660881
1646167663809482000,3.41448193359375,-1.8862170667052267,-0.4015945952653885,-5.701530556899309
1646167663819465000,3.42446484375,-2.0116449428379535,-0.6679062753379345,-6.199281925627589
1646167663829447000,3.434447021484375,-2.1002549541831015,-0.9309668446600436,-6.621897681611776
1646167663839430000,3.444429931640625,-2.08994398804903,-1.1501514473766088,-6.987378176444769
1646167663849411800,3.454411865234375,-2.1629998719096184,-1.479738791051507,-7.186632336288691
1646167663859394000,3.46439404296875,-2.035404588609934,-1.8155220667570828,-7.459618671819567
1646167663869377000,3.474376953125,-1.6856325350403785,-2.193345910334587,-7.8980340544819825
1646167663879359000,3.48435888671875,-1.3592518784523009,-2.4507442161113024,-8.467626670584082
1646167663889342000,3.494342041015625,-1.0238414546471089,-2.6767799998968838,-9.056444211637974
1646167663899324000,3.504323974609375,-0.6411502972941845,-3.031964726164937,-9.611088264933228
1646167663909307000,3.514306884765625,-0.26639585122466086,-3.368079425781965,-10.069928011465072
1646167663919288800,3.524288818359375,0.11236622305102646,-3.651056993973255,-10.398818605047463
1646167663929271300,3.534271240234375,0.30304646968655286,-3.836941969156265,-10.709430030095577
1646167663939253000,3.5442529296875,0.4113350680351257,-4.09902171074748,-10.722862343120575
1646167663949235200,3.554235107421875,0.37959085325002667,-4.318327309495211,-10.568379052895306
1646167663959218000,3.564218017578125,0.3113175640234723,-4.359814335137606,-10.48967201140523
1646167663969200000,3.5742001953125,0.17586977712512014,-3.8640485872685906,-10.567455508309601
1646167663979183000,3.58418310546875,-0.11855039157867431,-3.2906583324491976,-10.56339308117628
1646167663989165000,3.5941650390625,-0.3486298977971077,-2.841869439810514,-10.2540266877532
1646167663999148000,3.60414794921875,-0.6054256711034104,-2.4108494280964137,-9.881888488596678
1646167664009130200,3.614130126953125,-0.9705740479052066,-2.3246692742466926,-9.443218838912248
1646167664019112200,3.6241123046875,-1.3644564613580703,-2.690573547449708,-8.883231086501478
1646167664029095200,3.63409521484375,-1.6587610408581792,-3.019237346538901,-8.372977963596583
1646167664039077000,3.6440771484375,-1.7810837905824184,-3.200208246195316,-7.882123953166603
1646167664049060000,3.65406005859375,-1.650485233813524,-3.0870489000052213,-7.393640763521194
1646167664059042300,3.664042236328125,-1.395585759115219,-2.626862415039539,-6.954904478341341
1646167664069025000,3.67402490234375,-1.1187982777357102,-2.0913211216211316,-6.583278320360184
1646167664079007200,3.68400732421875,-0.7040917605061083,-1.5371365025311707,-6.491124937319755
1646167664088989000,3.693989013671875,-0.1473860254406929,-1.0731424419760704,-6.616758565157651
1646167664098972200,3.70397216796875,0.2878700164079666,-0.6620517040908336,-6.640767217254639
1646167664108954000,3.7139541015625,0.44331776775121684,-0.18993804996609687,-6.383983243983984
1646167664118937000,3.72393701171875,-0.017362711276486514,0.1281359660476446,-5.643512083172798
1646167664128919000,3.7339189453125,-1.2247042917966842,0.48724634132683275,-4.883769820180535
1646167664138902300,3.74390234375,-2.6481226452112194,0.9481319144725799,-4.226977059531212
1646167664148884000,3.753884033203125,-3.9116438666582107,1.6848586280584334,-3.818707808807492
1646167664158867200,3.7638671875,-5.002202722859383,2.2667852405548095,-3.691690033134818
1646167664168849200,3.77384912109375,-5.8889282747328275,2.552473821270466,-3.554669918885827
1646167664178831000,3.7838310546875,-6.254702199554443,2.6686265040576456,-3.376106664893031
1646167664188814000,3.79381396484375,-5.9180082387447355,2.5351760649889705,-3.0447324378013607
1646167664198796000,3.803796142578125,-5.334136337399483,2.42499251973927,-2.6821400656253096
1646167664208779000,3.813779052734375,-4.7351580523371695,2.3511054457515477,-2.3915765723496674
1646167664218761200,3.82376123046875,-3.960400006520748,2.2288450937390327,-2.1813807472527027
1646167664228744000,3.833743896484375,-3.1577918307483195,2.229152552253008,-1.9870996996462345
1646167664238726100,3.84372607421875,-2.6494658765137196,2.3619880742937327,-1.8231079918414352
1646167664248708000,3.8537080078125,-2.1755624163627623,2.57902397454381,-1.626052218824625
1646167664258691000,3.863691162109375,-1.641352663809061,2.770723188963532,-1.4042080415099858
1646167664268673300,3.87367333984375,-1.293517715781927,2.998733487692475,-0.9017693917483091
1646167664278656000,3.883656005859375,-1.1118003816723823,3.2637796778738495,-0.16558628351986407
1646167664288638200,3.89363818359375,-1.1377648440122603,3.484761685401201,0.41907121524512764
1646167664298621200,3.90362109375,-1.0199976387005298,3.817568575644493,0.8273673539757728
1646167664308603100,3.91360302734375,-0.8370353460311889,4.037452851063013,1.2486129906505345
1646167664318585000,3.923585205078125,-0.7440764918267726,4.215400311245024,1.6827309683799743
1646167664328568300,3.933568359375,-0.639227366407588,4.260268796019256,2.176534476265311
1646167664338550000,3.943550048828125,-0.4759411399910226,4.270710110534727,2.6469682144790885
1646167664348533200,3.953533203125,-0.30755211054272946,4.397658328102529,2.9069314023077486
1646167664358515000,3.963514892578125,-0.060153111135028296,4.644736315394938,3.0124270820021626
1646167664368498200,3.973498291015625,0.3078466365098953,4.930224697363377,3.0581074676811695
1646167664378480000,3.983480224609375,0.7110147647023201,5.324790416905284,3.0652637691766023
1646167664388462000,3.993462158203125,1.0391092394709587,5.773086557590961,3.0374089630454777
1646167664398445000,4.003445068359375,1.3134335456073283,6.070444533312321,3.230958189246058
1646167664408427300,4.01342724609375,1.4279729479789733,6.23159955638647,3.6200562910318372
1646167664418410000,4.023409912109375,1.40975807685256,6.237216227224469,4.008720677575469
1646167664428392200,4.03339208984375,1.3435095349192618,6.300201967969536,4.197078764873742
1646167664438375200,4.043375244140625,1.1717875251233576,6.4828691501498215,4.237670302981138
1646167664448357000,4.053357177734375,0.8621417302370071,6.712293991851806,4.114038078093529
1646167664458339300,4.06333935546875,0.593107347202301,7.01697193519771,3.8844296965181826
1646167664468322000,4.073322021484375,0.3991103772342205,7.147863337433337,3.640717386266589
1646167664478304300,4.08330419921875,0.1668354067981243,7.090856671097875,3.502278052869439
1646167664488287200,4.093287353515625,-0.03707622346282005,7.006375137859583,3.4785184070974586
1646167664498269200,4.103269287109375,-0.1245370647728443,7.055132446765899,3.5006823081105947
1646167664508252200,4.113252197265625,-0.08999066118174232,7.214000235685706,3.5456606830000874
1646167664518234000,4.123234130859375,0.2834136215209961,7.802043869757652,3.33685017478168
1646167664528216000,4.133216064453125,0.7619955948770046,8.676571034315227,3.0293653573215007
1646167664538199300,4.14319921875,1.0519406639933586,9.472712059900164,2.8204572339475154
1646167664548181000,4.153180908203125,1.1622522195369005,9.841312148058414,3.217631090161204
1646167664558164200,4.163164306640625,1.0036375285953283,9.346766881895064,4.491069894510507
1646167664568146200,4.173146240234375,0.9532663547515868,8.475394381976127,6.379367274621129
1646167664578129200,4.183129150390625,1.1052011295378208,7.916749276345968,8.05486887626946
1646167664588111000,4.193111083984375,1.2323264572381973,7.878577074339986,9.068005470094084
1646167664598093000,4.203093017578125,1.2830832693986594,8.188454924416542,9.131847535407543
1646167664608076000,4.213075927734375,1.1749871979475022,8.530157653298973,8.248085509514809
1646167664618058200,4.223058349609375,1.3062034482233225,8.78380566663146,6.893688669878244
1646167664628041000,4.233041015625,1.2936058324567974,8.797206415474415,5.129384749183059
1646167664638023200,4.243023193359375,1.1212081153564155,8.464520521262287,3.406642088410258
1646167664648006100,4.253006103515625,1.2366951738417147,8.036717718029022,1.9250527010560035
1646167664657988000,4.262988037109375,1.7040905672729014,7.381350606268644,0.8620324246436357
1646167664667970300,4.27297021484375,2.165691010689735,6.424563091653585,0.24970482866466043
1646167664677953000,4.282953125,2.486870006981492,5.590817434817552,-0.026014731222391126
1646167664687935200,4.292935302734375,2.719264219883084,4.9291918471843,0.0024988310784101486
1646167664697918200,4.302918212890625,2.8721511808276174,4.451445447869599,0.22928397192656993
1646167664707900200,4.312900146484375,2.7618156598865986,4.120225242295861,0.4773720130443573
1646167664717883100,4.322883056640625,2.378155365240574,3.789278300705552,0.656185442405939
1646167664727865300,4.332865234375,1.778980680823326,3.515646653008461,0.7076362281799315
1646167664737847000,4.342846923828125,1.1836287695646286,3.221661953112483,0.7129927867770195
1646167664747830300,4.352830322265625,0.5393512801606207,2.880551929426193,0.5225847812116146
1646167664757812000,4.36281201171875,0.059611843865178524,2.5947020206689833,0.17792437156736848
1646167664767795200,4.372795166015625,-0.38426359430141743,2.209530152416229,-0.2510498135328293
1646167664777777200,4.382777099609375,-0.7674983570117503,1.8475281473487615,-0.7132178277045488
1646167664787760000,4.392760009765625,-1.0549076971054077,1.568438234245777,-1.2640817779392004
1646167664797742000,4.4027421875,-1.2966682887673378,1.1575976717293261,-1.7003776842296123
1646167664807724300,4.412724365234375,-1.4565375098146498,0.7429021873503923,-2.0864783577650785
1646167664817707000,4.42270703125,-1.5344235903106629,0.45384325341880316,-2.4823598360806702
1646167664827689200,4.432689208984375,-1.527043709192425,0.1591974592655897,-2.8863176533460617
1646167664837672200,4.442672119140625,-1.5609750587582587,-0.04466273306906223,-3.2537580500751733
1646167664847654100,4.452654052734375,-1.6778166005924342,-0.22130466361045836,-3.6671067960202692
1646167664857636000,4.462635986328125,-1.7807108656167983,-0.39388708962798114,-4.13883992639482
1646167664867619000,4.472619140625,-1.8412170645058155,-0.6299778189599514,-4.508266528505087
1646167664877601000,4.48260107421875,-1.9895440240584312,-0.8989116642296314,-4.904872229442
1646167664887584300,4.492584228515625,-1.9591712437570095,-1.1945967383027076,-5.250739092266559
1646167664897566200,4.502566162109375,-1.909420101507753,-1.549234352082014,-5.418485768690705
1646167664907549200,4.512549072265625,-1.8200491887927055,-1.8667139093339442,-5.513849930471181
1646167664917531100,4.52253125,-1.710578906378895,-2.094082403028011,-5.74408725759983
1646167664927513600,4.532513671875,-1.5844262231029569,-2.1294892319738863,-6.195415313327312
1646167664937496600,4.54249658203125,-1.390484198192507,-2.373808860468864,-6.3550540866196155
1646167664947478500,4.552478515625,-1.1442626815989614,-2.537344641199708,-6.49773704893589
1646167664957461500,4.56246142578125,-1.0302420424044132,-2.679310395157337,-6.758078422427177
1646167664967443500,4.572443359375,-0.8957188595376908,-2.9343361265838146,-6.816332458475232
1646167664977426400,4.582426513671875,-0.7147019287824631,-3.0294033512443304,-6.949877005568147
1646167664987408600,4.59240869140625,-0.5350609625555575,-3.0074849494248626,-7.265320673078298
1646167664997390600,4.602390625,-0.30954408807754513,-3.0181986511409282,-7.5631258080452675
1646167665007373600,4.61237353515625,-0.09165303230285644,-3.031910365629196,-8.003128167638183
1646167665017355800,4.622355712890625,0.17679916692972183,-3.149260733768344,-8.505778414323926
1646167665027338500,4.63233837890625,0.3985680870510638,-3.348467547339201,-8.986024521499871
1646167665037320700,4.64232080078125,0.656252297097072,-3.7568881892323494,-9.373334570825099
1646167665047302400,4.652302490234375,0.9308568084143102,-4.35764225179553,-9.650297408771515
1646167665057285600,4.66228564453125,1.1784487365782261,-5.099624401691556,-9.642280106532573
1646167665067267600,4.672267578125,1.137791732019186,-5.5749780606508255,-9.376285237324238
1646167665077250600,4.68225048828125,1.1873766508560628,-5.669667099648714,-9.165897104525566
1646167665087232500,4.692232421875,1.233457945486158,-5.225573671349883,-9.090984779143334
1646167665097214700,4.702214599609375,1.1075206585265696,-4.607602516525984,-8.85142958857119
1646167665107197400,4.712197509765625,0.9359072236716747,-4.148132070875167,-8.28418616594374
1646167665117179600,4.7221796875,0.5420749329708516,-3.8048517174124714,-7.58966017922759
1646167665127162600,4.73216259765625,0.0466378325343132,-3.7132559682548045,-7.007979650446772
1646167665137144600,4.74214453125,-0.20693127034306524,-3.856536311942339,-6.617554683971405
1646167665147127600,4.75212744140625,-0.38573651639819145,-3.8414416186630724,-6.541604247713089
1646167665157109500,4.762109619140625,-0.6228172796808182,-3.5200574551880357,-6.909125308462977
1646167665167091700,4.772091796875,-0.6870633957505226,-3.057144175606966,-7.219529228240251
1646167665177074700,4.78207470703125,-0.5837875840626656,-2.3297277266800402,-7.5653312091350555
1646167665187056600,4.792056640625,-0.7261316698133945,-1.4561469030618668,-7.799622195568681
1646167665197039600,4.80203955078125,-0.9133600224293767,-0.8779694139659404,-7.330732179665565
1646167665207021600,4.812021484375,-1.2319921107172964,-0.5466752663731574,-6.604485943561792
1646167665217003500,4.82200341796875,-1.5776502992272377,-0.30282091730237004,-5.757477485048771
1646167665226986800,4.83198681640625,-1.8002245443820952,-0.057525137251615524,-4.852487962210178
1646167665236968400,4.841968505859375,-2.0470541098713873,0.22952245685756206,-4.083987807744741
1646167665246951700,4.85195166015625,-2.2553755193985996,0.5683405702143908,-3.466699374487996
1646167665256933600,4.86193359375,-2.371332825744152,0.7715969514369965,-3.2520670282483097
1646167665266916600,4.87191650390625,-2.2599556867957116,0.844952110505104,-3.4909202080309387
1646167665276898600,4.881898681640625,-1.9074983396649359,0.8127893780469894,-3.707212596437335
1646167665286880500,4.891880615234375,-1.6196530193068086,0.7302005266875028,-3.8908839872241017
1646167665296863500,4.901863525390625,-1.4166741398513316,0.6514490615338087,-3.9226919148951764
1646167665306845700,4.911845703125,-1.313634475006908,0.5796130748569965,-3.7083693652570244
1646167665316828400,4.921828369140625,-1.2409564845480023,0.6017600247353315,-3.481602929109335
1646167665326810600,4.931810546875,-1.2075240974802524,0.8020745072871446,-3.2097733623981473
1646167665336792600,4.94179248046875,-1.2368762294970452,1.0805874972850085,-2.8904017077893016
1646167665346775600,4.951775634765625,-1.1474806207321584,1.4355366612315177,-2.509606154924631
1646167665356757800,4.9617578125,-1.0292683020014315,1.875733666613698,-2.1600474518448114
1646167665366740500,4.971740478515625,-0.9531027616877108,2.321833174037933,-1.7159084308385848
1646167665376722700,4.98172265625,-0.9209609989523887,2.7055472446978093,-1.342623399734497
1646167665386704600,4.99170458984375,-0.8505845634341239,3.1552666961848734,-1.1731301719039677
1646167665396687600,5.0016875,-0.7417128314353525,3.621313597616553,-1.0867723233997821
1646167665406669600,5.011669677734375,-0.7336461370967328,4.027168188413977,-0.981375427904725
1646167665416652800,5.02165283203125,-0.8112450712144375,4.350727357840538,-0.750922412198782
1646167665426634500,5.031634521484375,-0.8030969091374427,4.56017294909209,-0.31744799306988714
1646167665436617700,5.04161767578125,-0.8799778311789035,4.702141625659167,0.1688262883543968
1646167665446599400,5.051599365234375,-0.9516460600733756,4.745203937794268,0.7246300330787897
1646167665456581600,5.06158154296875,-0.7677321657676249,4.834832478532195,1.1289864942729473
1646167665466564600,5.071564697265625,-0.5196563265442848,5.060757203158736,1.373347623822093
1646167665476546600,5.081546630859375,-0.3164717684488743,5.28115644236207,1.6009405739217997
1646167665486529500,5.091529541015625,0.037755364833399654,5.450756637698412,1.7609546102672815
1646167665496511700,5.10151171875,0.3626116248657927,5.710170959472656,2.014032714757323
1646167665506493700,5.11149365234375,0.6095815121412277,6.038970367640257,2.314233804950118
1646167665516476700,5.1214765625,0.8325297782402485,6.4317193931490175,2.6888608983129263
1646167665526458600,5.131458740234375,0.9490227258324623,6.772426681253314,3.0803374196678397
1646167665536441600,5.141441650390625,1.0254068773329257,7.1084046027481556,3.4642104802817104
1646167665546423600,5.151423583984375,1.065651209437847,7.386626500844955,3.9008407330930233
1646167665556405500,5.161405517578125,1.1095184082150458,7.5961214841961855,4.362259974724054
1646167665566388500,5.171388427734375,1.037538044631481,7.697813679954409,4.7458688314437865
1646167665576370400,5.181370361328125,1.0261866295337676,7.661820575553178,5.155070979103446
1646167665586353700,5.191353759765625,0.9255541719615459,7.549801631569862,5.508282943993806
1646167665596335600,5.201335693359375,0.780758747535944,7.477918883141875,5.615569598758221
1646167665606317600,5.211317626953125,0.6227414379656314,7.4014593283176415,5.676843274888396
1646167665616300500,5.221300537109375,0.4600222343146801,7.3521344486564395,5.579253838273883
1646167665626282800,5.23128271484375,0.4432856190472841,7.594093777760863,5.279643699711561
1646167665636265500,5.241265380859375,0.5625292535871267,7.930308430621028,4.950965872097015
1646167665646247700,5.25124755859375,0.7442670459628105,8.15742265729308,4.614420379847288
1646167665656229400,5.2612294921875,1.0864344697475432,8.263725561717152,4.31685372981131
1646167665666212600,5.271212646484375,1.4386778818666934,8.408520986142754,4.0724025838911535
1646167665676194600,5.281194580078125,1.643514225757122,8.270510691812634,4.039061455303431
1646167665686177500,5.291177490234375,1.635175436478853,7.949749628672003,4.158775045442581
1646167665696159500,5.301159423828125,1.2961731987267733,7.644144049087166,4.1782536528944965
1646167665706142700,5.311142822265625,0.8120183936744928,7.415770177742838,4.092624118664861
1646167665716124400,5.32112451171875,0.3836865981310606,7.274497666746377,3.8307057051151987
1646167665726106600,5.331106689453125,0.12532733836770057,7.25377344314754,3.475986842793226
1646167665736089300,5.34108935546875,-0.018508885636925695,7.191552257034182,3.086818013858795
1646167665746071600,5.351071533203125,0.0035807856627972793,7.036549911370873,2.6074434288203716
1646167665756054500,5.361054443359375,0.2267453933596611,6.876018573153019,2.037287918138504
1646167665766036500,5.371036376953125,0.5655716900229454,6.642337243050337,1.475059108802676
1646167665776018700,5.381018798828125,0.9212170195400714,6.394338633781671,0.9951502707570791
1646167665786001700,5.391001708984375,1.176121170413494,6.138037475591897,0.6997767468512058
1646167665795983600,5.400983642578125,1.3362380826115607,5.842021562129259,0.5269774632126093
1646167665805966600,5.410966552734375,1.3592495403647422,5.5326557532280685,0.5421721097350121
1646167665815948500,5.420948486328125,1.2002362054944038,5.061206700491905,0.781495245116949
1646167665825930500,5.430930419921875,0.9521604393362998,4.5060988290771835,1.0647124672830104
1646167665835913700,5.440913818359375,0.5915490118443966,3.936792336440086,1.2526508678644894
1646167665845895400,5.4508955078125,0.1932429367303848,3.3466797871395944,1.432740308511257
1646167665855878700,5.460878662109375,-0.19603229345427825,2.7345029978081583,1.5417986491233109
1646167665865860400,5.4708603515625,-0.45080549315810203,2.17918411399126,1.4495698627591131
1646167665875842600,5.480842529296875,-0.5665642081916332,1.5920950041651725,1.2028402505129574
1646167665885825500,5.490825439453125,-0.5982885492324829,1.1196961033582686,0.8483803313881159
1646167665895807500,5.500807373046875,-0.6475801111459731,0.668341744145751,0.49419513755142686
1646167665905790500,5.51079052734375,-0.5791501335203647,0.30403613831102844,0.04962590843439102
1646167665915772700,5.520772705078125,-0.43011224921941754,0.016166121903061867,-0.3430067972183227
1646167665925755000,5.5307548828125,-0.30571313161253927,-0.24778175164759159,-0.624461685886979
1646167665935737900,5.54073779296875,-0.19439678294062612,-0.38419279408752915,-0.9198176741361618
1646167665945719800,5.5507197265625,-0.1771837458005175,-0.3715858259707689,-1.2334949164956808
1646167665955702800,5.560702880859375,-0.27276717635486275,-0.310400412645936,-1.546770592316985
1646167665965684700,5.570684814453125,-0.47180038692448284,-0.1911263829678297,-1.8053882107555865
1646167665975666700,5.580666748046875,-0.7296259416699409,-0.2022755534917116,-2.1373574811309575
1646167665985650000,5.59064990234375,-0.9437959310948848,-0.35129824022352696,-2.5463334188193083
1646167665995631600,5.600631591796875,-1.1262496897201983,-0.5919377189010382,-3.048665685597062
1646167666005614800,5.61061474609375,-1.2361468923091887,-0.862205443122983,-3.5097616866230963
1646167666015596500,5.620596435546875,-1.1187643754661083,-1.2679641723304986,-4.00892467571497
1646167666025578800,5.630578857421875,-0.863469763970375,-1.681927835303545,-4.376980573993921
1646167666035561700,5.640561767578125,-0.46850598502159113,-1.9375497790575027,-4.722533548563718
1646167666045543700,5.650543701171875,-0.17752401060555129,-2.2796686875253913,-5.110950682348013
1646167666055526700,5.660526611328125,0.0027940146327018736,-2.618352945369482,-5.657892490702867
1646167666065508900,5.6705087890625,0.11910444526486098,-2.880406967997551,-6.274479497691988
1646167666075490800,5.68049072265625,0.17338084638621656,-3.1861358817011114,-6.815485486257076
1646167666085473800,5.690473876953125,0.12405066949538886,-3.3365479769647117,-7.4182748540401455
1646167666095455700,5.700455810546875,-0.11515789959616958,-3.355304699882865,-7.889034170946478
1646167666105438700,5.710438720703125,-0.362324076628685,-3.4110856238156555,-8.316833467048406
1646167666115421000,5.7204208984375,-0.5355413664836436,-3.399278866165876,-8.849705833518504
1646167666125402600,5.730402587890625,-0.7468027019202709,-3.33164676091969,-9.277336202794313
1646167666135385900,5.7403857421875,-0.976091934543848,-3.28638313934803,-9.61479588727951
1646167666145367800,5.750367919921875,-1.2162275553524493,-3.285899739745259,-9.949936188906431
1646167666155350800,5.760350830078125,-1.3598457526922225,-3.452659743219614,-10.185639964747429
1646167666165332700,5.770332763671875,-1.5502832766130565,-3.772562143704295,-10.344029030239582
1646167666175316000,5.78031591796875,-1.6812978668369352,-4.0405975788295265,-10.463070420205593
1646167666185297700,5.790297607421875,-1.5858569865584373,-4.010385395917297,-10.541538976764679
1646167666195280000,5.80027978515625,-1.473684897840023,-3.9656098501235246,-10.459162306851148
1646167666205262600,5.8102626953125,-1.3651298305749893,-3.8573628258943558,-10.179365706783532
1646167666215244800,5.820244873046875,-1.3366285432338714,-3.775529761338234,-9.81610639513135
1646167666225227800,5.830227783203125,-1.2199229758042842,-3.7682168079763647,-9.45481516868174
1646167666235209700,5.840209716796875,-1.1510791566807776,-3.941324719172716,-8.93147460066676
1646167666245192000,5.85019189453125,-1.1902666732091456,-4.178492137825489,-8.267263672715425
1646167666255174700,5.860174560546875,-1.1987094343185425,-4.263158964502812,-7.639502360761165
1646167666265156900,5.870156982421875,-1.205493395370245,-4.209139789545536,-7.051267003509402
1646167666275138800,5.880138916015625,-1.160701482963562,-3.8533395617276427,-6.552841096520424
1646167666285121800,5.890121826171875,-1.0617115319013595,-3.2760558066010472,-6.187624805581569
1646167666295103700,5.900103759765625,-0.9812216986477375,-2.551494162583351,-5.91634118231535
1646167666305087000,5.9100869140625,-0.894264715206623,-1.7959236323177814,-5.71135578534305
1646167666315068700,5.920068603515625,-0.7929226480603218,-1.0330775580912828,-5.539824914205074
1646167666325051000,5.93005078125,-0.7434639128863811,-0.27121464968323705,-5.43240849558115
1646167666335033600,5.94003369140625,-0.7206850948452949,0.3059761664628982,-5.214354358199238
1646167666345015800,5.950015869140625,-0.7754255698144435,0.7557499784857035,-4.955373167145252
1646167666354998800,5.959998779296875,-0.8427472939372063,1.1431973904550075,-4.803838789853454
1646167666364980700,5.969980712890625,-0.9883201324760913,1.4617483763307333,-4.697433009576797
1646167666374962700,5.979962646484375,-1.308887134349346,1.7567337777018546,-4.53080861518085
1646167666384945700,5.989945556640625,-1.6149848813652992,2.0412030457556245,-4.276695906946062
1646167666394927600,5.999927734375,-1.999403885424137,2.310395249700546,-4.056283808261155
1646167666404910800,6.009910888671875,-2.301879934811592,2.40475695644021,-3.819612648692727
1646167666414892800,6.019892822265625,-2.4203403100192546,2.4182892227083443,-3.645049277991056
1646167666424874800,6.029874755859375,-2.4505554155409333,2.3770418510407207,-3.400352048355341
1646167666434857700,6.039857666015625,-2.360558918273449,2.2559458666324614,-3.075038144215941
1646167666444839700,6.049839599609375,-2.162478478384018,2.2170751609683035,-2.8522289212614296
1646167666454822700,6.05982275390625,-1.937936732548475,2.1335469829320908,-2.500747141164541
1646167666464804600,6.0698046875,-1.73654921393767,2.1110960816711186,-2.1062626701653
1646167666474786800,6.079786865234375,-1.5943851609289645,2.192021968254447,-1.7386363954752682
1646167666484769800,6.089769775390625,-1.5435247422635554,2.401806289941072,-1.3475959274500608
1646167666494751700,6.099751708984375,-1.5970599330961703,2.598306182640791,-0.8791606695771217
1646167666504734700,6.109734619140625,-1.4804068995714186,2.816977867399156,-0.4287830464422703
1646167666514717000,6.119717041015625,-1.2993651266358792,3.101383714827895,0.026791560813784598
1646167666524698600,6.12969873046875,-1.1939081715166568,3.381097897309065,0.47775195227265355
1646167666534681900,6.139681884765625,-1.1533761085115373,3.7214746382847426,0.815652950784564
1646167666544663600,6.14966357421875,-1.0920108085751532,3.98308383975476,1.1306032818198204
1646167666554646800,6.159646728515625,-0.9753576289199292,4.225661593018472,1.4533125564187763
1646167666564628700,6.169628662109375,-0.8122796749591827,4.5074213098525995,1.7706009750127791
1646167666574610700,6.179610595703125,-0.6389220267854631,4.825674189564586,2.0699638608157636
1646167666584593700,6.18959375,-0.5070763194996863,5.121762583741545,2.3740683881878852
1646167666594575600,6.19957568359375,-0.34578802543468773,5.44137915302217,2.8054081333756447
1646167666604558600,6.20955859375,-0.3382769191522151,5.880989298427105,3.173630620393157
1646167666614540800,6.219540771484375,-0.4769642359610647,6.397945133841038,3.5091695659488438
1646167666624522800,6.229522705078125,-0.6264869081042707,6.86436028406322,3.9284225675016637
1646167666634505700,6.239505615234375,-0.7432033622540533,7.196496727699041,4.399018802800774
1646167666644488000,6.249488037109375,-0.7673592408020049,7.498612127080559,4.860427523037791
1646167666654469600,6.2594697265625,-0.8270071423612535,7.7326161132663485,5.130812151637673
1646167666664452900,6.269452880859375,-0.74693480386734,7.89164230761826,5.284910241937637
1646167666674434600,6.2794345703125,-0.5441876142758876,8.035158798149228,5.328930585449934
1646167666684417800,6.289417724609375,-0.4441747499067336,8.155756769907475,5.364394113019109
1646167666694399700,6.299399658203125,-0.4288589612226933,8.154144658535719,5.39190112862587
1646167666704381700,6.309381591796875,-0.3512474233517423,8.121198666745423,5.434174920731783
1646167666714364700,6.31936474609375,-0.44138767647147176,8.095965441289543,5.504689303416013
1646167666724346600,6.3293466796875,-0.7103940024554729,8.014490688651799,5.5526651065558195
1646167666734329600,6.33932958984375,-0.9233739053130149,7.675980033808946,5.653101749294996
1646167666744311800,6.349311767578125,-0.9760475108802318,7.426716519170999,5.649248580998182
1646167666754293800,6.359293701171875,-0.8632651813089847,7.386036133736371,5.335660770487785
1646167666764276700,6.36927685546875,-0.6119897423267364,7.472050867891311,4.78331038108766
1646167666774259000,6.379259033203125,-0.18154197754263876,7.416202139419317,4.320345079058408
1646167666784241700,6.38924169921875,0.39012276865839957,7.323669986194372,3.9911365055680275
1646167666794223900,6.399223876953125,0.8808195427000522,7.108035769435763,3.8018303237646816
1646167666804205600,6.40920556640625,1.1609937439084053,6.655546268713474,3.6994951539278027
1646167666814188800,6.419188720703125,1.2278384981691837,6.082229663652181,3.682623514103889
1646167666824170800,6.429170654296875,1.1075322028338908,5.662710120117664,3.6050106975913048
1646167666834153700,6.43915380859375,0.9516858075618744,5.385979337361455,3.4010651650607584
1646167666844135700,6.4491357421875,0.8424164545476436,5.253662286236882,3.081459701696038
1646167666854117600,6.45911767578125,0.8080079889893531,5.157295084893703,2.636491828650236
1646167666864100600,6.4691005859375,1.0139046555876732,5.045469033133983,2.1266928792536257
1646167666874082800,6.479082763671875,1.303836865222454,4.95670120087862,1.639640599194169
1646167666884064800,6.489064697265625,1.5361878235042095,4.9739761608064175,1.1164303795605897
1646167666894047700,6.4990478515625,1.7540332865715025,5.050298352986574,0.5609598123133183
1646167666904030000,6.509030029296875,1.7826736901223659,5.220904510495067,0.037730303457379336
1646167666914012700,6.5190126953125,1.5417840360760688,5.197060109049081,-0.23007249195575713
1646167666923995000,6.528994873046875,1.0687374850153923,5.008066061934828,-0.4215881665021181
1646167666933976800,6.538976806640625,0.5165582874637097,4.830926995526254,-0.5238292283147573
1646167666943960000,6.5489599609375,-0.17254625872559845,4.524734848225116,-0.4671662608504295
1646167666953942000,6.55894189453125,-0.7963328218299895,4.13944636785537,-0.3565612753182649
1646167666963925000,6.568925048828125,-1.388712950736284,3.6530306321337815,-0.12179331902265549
1646167666973907000,6.578906982421875,-1.856409957462549,3.0876579718142745,0.18179975169599055
1646167666983889000,6.588888916015625,-2.1168144593179226,2.5841382488176223,0.3516612283170223
1646167666993872000,6.598871826171875,-2.256814466160536,2.1102339118838307,0.41004853535592556
1646167667003854000,6.60885400390625,-2.2544553358137605,1.6083388674795627,0.3722270464837551
1646167667013836000,6.6188359375,-2.115766996091604,1.1914677926272152,0.21764088040590285
1646167667023819000,6.628819091796875,-1.8768366594195365,0.753538732177019,-0.0027747254103422164
1646167667033801000,6.638801025390625,-1.5437762328065932,0.3813847509294748,-0.28036533986628054
1646167667043784000,6.648783935546875,-1.1635025849241762,0.12082885790467261,-0.6331424204707146
1646167667053766000,6.658765869140625,-0.829967380406335,-0.20309096152782438,-0.9799468564063311
1646167667063747800,6.668747802734375,-0.5612918938118964,-0.4142594310492277,-1.260094754129648
1646167667073731000,6.67873095703125,-0.3551204288601875,-0.6241407833695412,-1.4940665916115046
1646167667083713000,6.688713134765625,-0.2033293003283441,-0.7987497467786073,-1.6967179926782845
1646167667093696000,6.698696044921875,-0.17902509935088454,-0.8907102375954389,-1.8815531665474174
1646167667103678000,6.708677978515625,-0.3067394059203565,-0.9909551571547984,-2.1293045230567453
1646167667113660000,6.718659912109375,-0.4239174862325191,-1.11917120270133,-2.4402298363596198
1646167667123643000,6.728642822265625,-0.44329687109366056,-1.2740443690270185,-2.8183067779153586
1646167667133625000,6.738625,-0.3334592166721821,-1.5026181468576192,-3.1721582097530363
1646167667143607800,6.74860791015625,-0.15094240274801848,-1.7703911316543817,-3.5014164676040407
1646167667153590000,6.758590087890625,0.12945282079987228,-2.121340412309766,-3.7500954603523016
1646167667163572000,6.768572021484375,0.2521931383490562,-2.4811153889775275,-3.823987795037031
1646167667173555000,6.778554931640625,0.20556816529631614,-2.6139970882475376,-4.056883527719974
1646167667183537000,6.788536865234375,0.16107202096581458,-2.762624638181925,-4.365767106062173
1646167667193518800,6.798518798828125,0.09067921883463859,-2.5636492952793835,-4.830426937049627
1646167667203501800,6.808501708984375,-0.19892682758569716,-2.1020734017819165,-5.395691753080487
1646167667213484000,6.818484130859375,-0.47559755071774124,-1.8879647871553897,-5.809619760218262
1646167667223466800,6.828466796875,-0.6679146047748625,-1.7312445316582916,-6.287786138510704
1646167667233449000,6.838448974609375,-0.902381386166811,-1.6446172185629606,-6.854516350919008
1646167667243431000,6.848430908203125,-1.0441105548895895,-1.644838167837262,-7.423577636623382
1646167667253414000,6.858413818359375,-1.2264229322828353,-1.6723568738818169,-8.058603386622666
1646167667263396000,6.86839599609375,-1.3274704003967344,-1.7036410699397324,-8.612141524502634
1646167667273378800,6.87837890625,-1.4653170285977422,-1.8618623776495455,-9.076346012938021
1646167667283361000,6.888361083984375,-1.6518237889409064,-2.1755361128777264,-9.463813298651575
1646167667293343000,6.898343017578125,-1.7634101867258547,-2.5991104847609994,-9.69249170590043
1646167667303326000,6.908325927734375,-1.7829367249727248,-2.90787949681282,-9.823916776621342
1646167667313308000,6.918307861328125,-1.6351599466487765,-2.652754396665096,-9.937141004741191
1646167667323289900,6.928289794921875,-1.5050433281779287,-2.4088041860044003,-9.872018251967429
1646167667333272800,6.93827294921875,-1.4443442370653152,-2.301373738855123,-9.422127535566688
1646167667343255000,6.948255126953125,-1.4676117154061794,-2.239996602350473,-8.737781582081317
1646167667353237800,6.95823779296875,-1.4335400805868208,-2.3509569771915673,-8.043418676972388
1646167667363220000,6.968219970703125,-1.3374936356306075,-2.5551743124008177,-7.293924836272001
1646167667373202000,6.978201904296875,-1.3424680630423127,-2.825537898212671,-6.554055733007192
1646167667383185000,6.988184814453125,-1.3019218253813682,-3.0629525696247812,-5.903197623103857
1646167667393167000,6.9981669921875,-1.2653006522096693,-3.220535579431057,-5.354527968043088
1646167667403149800,7.00814990234375,-1.132289189080149,-3.1781758626073597,-4.874252927033603
1646167667413132000,7.018132080078125,-1.021999114716053,-2.945575313478708,-4.490447378697991
1646167667423114000,7.028114013671875,-0.8660720554232597,-2.58452491004765,-4.15443087875843
1646167667433097000,7.038096923828125,-0.6631332157172263,-2.2257529729425904,-3.8367660280674696
1646167667443079000,7.048078857421875,-0.4413536280713975,-1.8247101663410663,-3.7122675417393443
1646167667453060900,7.058060791015625,-0.10317293583527207,-1.3679746986120938,-3.6653456315666433
1646167667463043800,7.0680439453125,0.23245251896008848,-0.8879173920065164,-3.604148527804017
1646167667473026000,7.078026123046875,0.4830079731047153,-0.5445616352200507,-3.4793875911474226
1646167667483008800,7.0880087890625,0.649380146305263,-0.2675917830109596,-3.2736955072104927
1646167667492991000,7.097990966796875,0.655288493566215,0.08056406753361224,-3.154439597710967
1646167667502973000,7.107972900390625,0.5717023017324507,0.39404140340685845,-3.0984605208575724
1646167667512956000,7.117955810546875,0.3814272748969495,0.6269950037568808,-3.001417027688026
1646167667522938000,7.127938232421875,0.1915316027678549,0.7702110500365495,-2.923108045604825
1646167667532920800,7.1379208984375,0.11526070238351821,0.956104793047905,-2.9049516266673803
1646167667542903000,7.147903076171875,-0.005895633909851312,1.1736463047325612,-2.787871892163157
1646167667552885000,7.157885009765625,-0.20412425009831786,1.2980389925986529,-2.4967069258630272
1646167667562868000,7.167867919921875,-0.46250981334671376,1.3426006033807991,-2.1913772406101226
1646167667572850000,7.177849853515625,-0.6792017224647104,1.4520020583420992,-1.8785043003708124
1646167667582831900,7.187831787109375,-0.9305332755483686,1.5988649366915224,-1.5314508581101893
1646167667592814800,7.19781494140625,-1.2117616619847713,1.7213772176384925,-1.121724394315481
1646167667602797000,7.207797119140625,-1.4520286540880798,1.7470044108480214,-0.6934627413988113
1646167667612779800,7.21777978515625,-1.450455997943878,1.846850101956725,-0.2593172911405563
1646167667622762000,7.227761962890625,-1.3599043510116635,1.9673750084787607,0.11754735201597213
1646167667632744200,7.237744140625,-1.2760673992872238,2.1329227135539055,0.46424657401144503
1646167667642727000,7.247726806640625,-1.177436344665289,2.3123753176018593,0.8272796756923199
1646167667652709000,7.257709228515625,-1.0690813300170003,2.4634391547724603,1.1887912668943403
1646167667662690800,7.26769091796875,-1.0235387453734874,2.6084105202868577,1.4316355621397494
1646167667672674000,7.277674072265625,-0.9303297158002853,2.8365324626967308,1.6427677913039922
1646167667682656000,7.287656005859375,-0.9862158536732196,3.0256194487914443,1.9054063358217477
1646167667692639000,7.297638916015625,-0.997379052722454,3.226692933017015,2.147407165980339
1646167667702621000,7.307620849609375,-0.9372750048935413,3.381619875356555,2.4132985748142004
1646167667712603000,7.317602783203125,-0.8958417552649974,3.5228690054774283,2.6486919695317743
1646167667722585900,7.3275859375,-0.8710473596177994,3.713594114167988,2.872103250032663
1646167667732568000,7.337568115234375,-0.8950514816701411,3.9066199010163545,3.1078555411905047
1646167667742550000,7.347550048828125,-0.9124864544652402,4.186129793097079,3.225885708287358
1646167667752533000,7.357532958984375,-0.8504945470631122,4.49741575640589,3.290599880260229
1646167667762515000,7.367514892578125,-0.7571357337556779,4.8512467299774285,3.3570933368653058
1646167667772498000,7.377497802734375,-0.6628207887671888,5.285255109852552,3.3864223072022197
1646167667782480100,7.387480224609375,-0.6244727918028831,5.66195374879241,3.4148861851423975
1646167667792461800,7.3974619140625,-0.6059656597316265,6.0006777541249985,3.4350101047605275
1646167667802445000,7.407445068359375,-0.600374269465357,6.3215884548693895,3.3799703545838593
1646167667812427000,7.417427001953125,-0.5183925902187824,6.569063917046785,3.3013129974544047
1646167667822409000,7.427408935546875,-0.5087593772158027,6.7155059396356345,3.279866889321804
1646167667832392000,7.437391845703125,-0.5533503602229058,6.702433107572793,3.3003666565150023
1646167667842374000,7.447373779296875,-0.6168203773535788,6.563777501076459,3.3670804778724905
1646167667852356900,7.45735693359375,-0.7157235269151627,6.271841550403833,3.4951305192023514
1646167667862339000,7.467339111328125,-0.7717023115076124,5.909912610572576,3.5700656409382816
1646167667872320800,7.47732080078125,-0.6117616326592862,5.62441107686162,3.593704290679097
1646167667882304000,7.487303955078125,-0.26804171873554583,5.540884067869186,3.4640228487551212
1646167667892286000,7.497285888671875,0.0648470045723021,5.626866653320193,3.360564812368154
1646167667902268000,7.507267822265625,0.3070646923519671,5.641391437757015,3.3787072027802467
1646167667912251000,7.5172509765625,0.41013562911748885,5.598097654953599,3.510008354860544
1646167667922232800,7.52723291015625,0.27862784854918715,5.362251840293407,3.755215287584066
1646167667932215800,7.5372158203125,-0.0138379712164402,4.963155491584539,3.937705944153666
1646167667942197800,7.54719775390625,-0.36569662180170415,4.585922307376563,3.894231544086337
1646167667952180000,7.557179931640625,-0.7710814031302928,4.176376168584824,3.6430922987043854
1646167667962162700,7.56716259765625,-1.0845793434001505,3.952042220281064,3.3169314223468302
1646167667972145000,7.577144775390625,-1.251319911521673,3.8610295317083594,2.819241428416967
1646167667982127900,7.5871279296875,-1.2334325187839568,3.8765216998726126,2.2310557555258272
1646167667992109800,7.59710986328125,-1.0120997981227933,3.992211441323161,1.7257669770300388
1646167668002091800,7.607091796875,-0.6310242592729628,4.087496692648529,1.2404723542928695
1646167668012075000,7.617074951171875,-0.2167946388401091,4.160723841422796,0.8270750930309295
1646167668022056700,7.627056640625,0.20883549652919173,4.14683969297707,0.4199561813861131
1646167668032039000,7.637038818359375,0.4972350897692144,4.034208170053363,0.011248539245128631
1646167668042021600,7.647021728515625,0.6933785702466965,3.8565427416831253,-0.366757090640068
1646167668052003800,7.65700390625,0.8206862687766552,3.627017362216115,-0.6588134528219699
1646167668061986800,7.66698681640625,0.8900724511485546,3.271815392552316,-0.8195791843175888
1646167668071968800,7.67696875,0.8542178784351795,2.8958734171986578,-0.8026508458703756
1646167668081951000,7.686950927734375,0.7144729423321783,2.5245289987683295,-0.6448118154764175
1646167668091933700,7.69693359375,0.47960832072906195,2.084704918351769,-0.3796083889067173
1646167668101916000,7.706916015625,0.1832183863222599,1.686989210346341,-0.04630582410097122
1646167668111897900,7.71689794921875,-0.13372457983493805,1.3063128999471663,0.2817173389971256
1646167668121880800,7.726880859375,-0.4139981497645378,0.8834107282370328,0.5452040247768163
1646167668131862800,7.73686279296875,-0.5697944222845137,0.4564689257472753,0.7554226462274789
1646167668141846000,7.746845947265625,-0.7664284627579152,-0.03706920920014381,0.8960930996775627
1646167668151827700,7.75682763671875,-0.813965509154275,-0.3801648537456989,0.9485264667481184
1646167668161810000,7.766809814453125,-0.8053251065809279,-0.667325260579586,0.9034399553090333
1646167668171792600,7.776792724609375,-0.7939280257105827,-0.9677250882148742,0.775402188938856
1646167668181774800,7.78677490234375,-0.7076642852306365,-1.2585101152867078,0.5889268466472626
1646167668191756800,7.7967568359375,-0.4190401625197381,-1.525188875105977,0.265548879006505
1646167668201739800,7.80673974609375,0.07123327154330909,-1.7646721694856882,-0.08638181390166282
1646167668211722000,7.816721923828125,0.6098877285461872,-1.9652356583625077,-0.3735691087424755
1646167668221704700,7.82670458984375,1.228475627028942,-2.1205127293139694,-0.6066448741674423
1646167668231687000,7.83668701171875,1.7262427778482436,-2.235125196921825,-0.7748024694800376
1646167668241668900,7.8466689453125,2.0500749189972876,-2.246318206587434,-1.0070599042594433
1646167668251651800,7.85665185546875,2.207941421920061,-2.186874083971977,-1.1575544171094894
1646167668261633800,7.8666337890625,2.0987106473505497,-2.190564755183458,-1.2838164059787989
1646167668271615700,7.87661572265625,1.8691981273651121,-2.112576091095805,-1.4577134217262266
1646167668281598700,7.8865986328125,1.5667980658233165,-2.0091461117595433,-1.671992716744542
1646167668291581000,7.896580810546875,1.2332991016626358,-1.8521563916712998,-1.9323545485019682
1646167668301563600,7.906563720703125,1.0265560473680495,-1.7479706255316734,-2.2155893063247203
1646167668311545900,7.9165458984375,0.9038637336790561,-1.5882821678787469,-2.6946196079701186
1646167668321527800,7.92652783203125,0.9039023121237755,-1.3964812466502188,-3.262811125102639
1646167668331510800,7.9365107421875,1.0500935748219489,-1.37801561563313,-3.7870863436192272
1646167668341493000,7.946492919921875,1.2703273943305016,-1.346642572247982,-4.334584032291174
1646167668351474700,7.956474609375,1.4368109189510345,-1.3849761022955178,-4.79151706841886
1646167668361458000,7.9664580078125,1.4861656092286109,-1.4497183313190936,-5.226002125895023
1646167668371439900,7.97643994140625,1.4333832825899124,-1.2506775219649076,-5.862137298440933
1646167668381422800,7.9864228515625,1.2760416803240775,-1.0076216297954321,-6.5653679851382964
1646167668391404800,7.99640478515625,1.0854454587101936,-0.8968652530938387,-7.156711245277523
1646167668401386800,8.00638671875,0.882232770498842,-0.7896078244239091,-7.633018843960762
1646167668411369700,8.01636962890625,0.6353799702644348,-0.6123685125112533,-8.014258048939704
1646167668421352000,8.02635205078125,0.573555163057521,-0.15773615454137324,-8.460899992677568
1646167668431334000,8.036333984375,0.5221077382843942,0.13655600386857986,-8.720720557165146
1646167668441316900,8.04631689453125,0.29525596194081005,0.10938859547972679,-8.75879514401555
1646167668451298800,8.056298828125,0.06280804609060286,0.01040156702697277,-8.70646231471002
1646167668461281800,8.06628173828125,-0.29815986668877303,-0.3688087624728679,-8.540424780291318
1646167668471264000,8.076263916015625,-0.7128455603260546,-0.9847574715584516,-8.247142091184854
1646167668481245700,8.08624560546875,-1.1320178247928618,-1.696072095990181,-7.877688016545772
1646167668491229000,8.09622900390625,-1.3395371241569518,-2.3218401883006092,-7.479241071656346
1646167668501211000,8.1062109375,-1.3371873461604118,-2.7772330092489717,-7.029497654771804
1646167668511192800,8.11619287109375,-1.1424526365023107,-3.0625586018711326,-6.420528721570968
1646167668521175800,8.12617578125,-0.895552928386256,-3.1540707643985746,-5.713651787325739
1646167668531157800,8.13615771484375,-0.7402139711797237,-3.1565988215714693,-4.94066192022562
1646167668541140000,8.146139892578125,-0.6458558446366339,-3.0904747828006744,-4.2897006422087545
1646167668551123000,8.156123046875,-0.6235515853047371,-2.9451661481559275,-3.7916923761099577
1646167668561105000,8.16610498046875,-0.6372925258874893,-2.726723888239264,-3.3872844769895076
1646167668571088000,8.176087890625,-0.707821083227545,-2.5482272697418926,-3.024964784274995
1646167668581069800,8.18606982421875,-0.6996387996852398,-2.435789223563671,-2.7206717485934493
1646167668591051800,8.1960517578125,-0.6275789411246776,-2.320091883328557,-2.471590020263195
1646167668601034800,8.20603466796875,-0.5883294652760028,-2.1775942144513127,-2.3843209021329876
1646167668611016700,8.2160166015625,-0.6555880610346794,-1.928723498523235,-2.6252485501021146
1646167668620999000,8.2259990234375,-0.8521290163971483,-1.619960916212201,-3.16788067856431
1646167668630982000,8.23598193359375,-1.1051521027643232,-1.3848708883553742,-3.6929438325881954
1646167668640963800,8.2459638671875,-1.3499439518809317,-1.1286135693073271,-4.0225557261824605
1646167668650946800,8.25594677734375,-1.6677987721860408,-0.8897913691848516,-4.10211792319715
1646167668660928800,8.2659287109375,-2.0604723943710326,-0.7039625081032514,-3.922931568869948
1646167668670910700,8.27591064453125,-2.2495887526907024,-0.37165421503186225,-3.5318694735348224
1646167668680894000,8.28589404296875,-2.320770513242483,0.027249825975298878,-3.0721874309599397
1646167668690875600,8.295875732421875,-2.2039164041876793,0.3076888155996799,-2.4901702175706624
1646167668700857900,8.30585791015625,-1.809158376944065,0.5451771367698908,-1.8439736697375773
1646167668710840800,8.3158408203125,-1.3591630311250686,0.7296411392390728,-1.1603460936546326
1646167668720822800,8.32582275390625,-0.9608874242145568,0.8144067501157521,-0.5661942058354615
1646167668730805800,8.3358056640625,-0.6206687233448028,0.8992483488380908,-0.04420914408266544
1646167668740787700,8.34578759765625,-0.47580315629243847,0.87108842228055,0.47574002792835235
1646167668750770000,8.35577001953125,-0.5169325276035815,0.8372475274771451,0.9124661423295736
1646167668760753000,8.3657529296875,-0.6900888810515403,0.86366557880342,1.3014005779862403
1646167668770734800,8.37573486328125,-0.9441619148630648,1.0190490327388046,1.6061030712515114
1646167668780716800,8.385716796875,-1.1731108826816081,1.2458926257759333,1.7888982637256383
1646167668790699800,8.39569970703125,-1.364634156012535,1.483119665661454,1.9287398651361465
1646167668800681700,8.405681640625,-1.3820388797998429,1.7403560588747262,2.146326969528198
1646167668810664000,8.415663818359375,-1.3637293161273,2.044528098525107,2.333665066128969
1646167668820646700,8.425646728515625,-1.2090952192544937,2.3368033641546964,2.461442135736346
1646167668830628900,8.43562890625,-1.0392413414180277,2.6739649424761534,2.578764446824789
1646167668840611800,8.44561181640625,-0.8841068938076495,3.0590716365382074,2.628476279976964
1646167668850593800,8.45559375,-0.7976607824981212,3.463275245258212,2.6205770511597395
1646167668860576000,8.465575927734376,-0.7191863807201385,3.9420673542335627,2.573172325906157
1646167668870558700,8.475558837890626,-0.7166236906252801,4.463111043483019,2.554222710764408
1646167668880541000,8.485541015625,-0.662881871304661,5.049695126396418,2.517414782848954
1646167668890522600,8.495522705078125,-0.628146073488146,5.637184633716941,2.4571377165406942
1646167668900505900,8.505505859375,-0.5388544365543871,6.238140356332063,2.3174703026533123
1646167668910487800,8.51548779296875,-0.45230537632703777,6.769846017110347,2.1680507255584
1646167668920470800,8.525470703125,-0.37456732599958775,7.095647997027635,2.1057143886327743
1646167668930451700,8.53545166015625,-0.32660496686324475,7.224589434239268,2.1272622035741806
1646167668940433700,8.54543359375,-0.35583478767462073,7.131469836515188,2.2511194693893195
1646167668950417000,8.5554169921875,-0.3799075179837644,6.999536231750249,2.3029829276174305
1646167668960398600,8.565398681640625,-0.4024643638372421,6.922934053584933,2.320046875143051
1646167668970380800,8.575380859375,-0.3353719914909452,7.065136538907885,2.235519164675474
1646167668980363500,8.585363525390624,-0.1649450630068779,7.342788528162241,2.2270009271770714
1646167668990345700,8.595345703125,0.035738837379217146,7.501746333453059,2.332769578593969
1646167669000328700,8.60532861328125,0.084675009983778,7.451842192599177,2.6075048036187884
1646167669010310700,8.615310546875,-0.11994981004782021,7.037136771348118,3.0575556790173053
1646167669020292900,8.62529296875,-0.5183389603354036,6.216955529484152,3.5611733094304796
1646167669030275800,8.63527587890625,-1.0183495061673222,5.197644630938768,3.9275884547650812
1646167669040257800,8.6452578125,-1.4123919324874876,4.347957600866258,3.9380338609337806
1646167669050239700,8.65523974609375,-1.6197253538906573,3.8193326627075668,3.5788650334656236
1646167669060222700,8.66522265625,-1.5657203535892068,3.661939330254495,2.9049083720475433
1646167669070204700,8.67520458984375,-1.2498469163596628,3.7233953772142527,2.1844114932507277
1646167669080186600,8.6851865234375,-0.7460089942593127,3.858473709745705,1.6082827533781527
1646167669090169600,8.695169677734375,-0.04089074024967849,4.146471444186568,1.1808178037971258
1646167669100151800,8.70515185546875,0.6076759707808495,4.379987062333524,0.9151046741396188
1646167669110134500,8.715134521484375,1.1471639559984206,4.387141318002343,0.7054805114507675
1646167669120116700,8.72511669921875,1.5882207930803298,4.249210810910165,0.514184032613039
1646167669130099000,8.735098876953124,1.8262135566413402,3.903731486098468,0.4791226561039686
1646167669140081700,8.74508154296875,1.9100503622353076,3.4157965779855846,0.6220411807417869
1646167669150063900,8.75506396484375,1.7643781549751758,2.9482915867000816,0.8554635676473379
1646167669160045600,8.765045654296875,1.3726245702445505,2.533897715616226,1.1696651261419058
1646167669170028800,8.77502880859375,0.8048422915000468,2.1237001271784304,1.6198983723700047
1646167669180010800,8.7850107421875,0.23394078475646674,1.8399045206025242,2.101945976009965
1646167669189992700,8.79499267578125,-0.21462474745512009,1.5979992597728967,2.541770056426525
1646167669199975700,8.8049755859375,-0.5037246344516053,1.2406775214761494,2.918583261656761
1646167669209957600,8.81495751953125,-0.7020247449737042,0.8589233527123927,3.1807951051950454
1646167669219940600,8.824940673828126,-0.7357306882858275,0.5525479577988386,3.202385005712509
1646167669229922800,8.8349228515625,-0.6422597929060458,0.15335516297817228,3.075976886370778
1646167669239904800,8.84490478515625,-0.5277975839564576,-0.20518004276156424,2.8778467621207238
1646167669249887700,8.8548876953125,-0.40550738479495047,-0.4963461781054735,2.5295816059827803
1646167669259869700,8.86486962890625,-0.21386015629079191,-0.7220382630199194,2.146254488813877
1646167669269851600,8.8748515625,-0.029206184207461773,-0.9023691112071275,1.7778753499299287
1646167669279834600,8.884834716796876,0.08236852313969284,-0.9970569811612368,1.4110387643128632
1646167669289816600,8.894816650390625,0.41233807106520975,-1.4903922870129347,0.9906167189806699
1646167669299798800,8.904798828125,2.1589900517463683,-1.0362006585478782,-0.42658173700571056
1646167669309781800,8.91478173828125,-0.26250878065824507,-0.6445435199290513,0.3110404641151428
1646167669319763700,8.924763671875,-0.022253880851529538,-1.3154752805680037,-0.07301029115319252
1646167669329746700,8.93474658203125,0.6111433911630884,-0.39402386775016784,-0.7631734064847231
1646167669339728600,8.944728759765624,0.17400635787341742,-1.0578431660354137,-0.8423556642711162
1646167669349710600,8.954710693359376,0.32023970614764835,-0.9962509254753589,-1.311664197847247
1646167669359693800,8.96469384765625,0.37266777598857875,-1.0976578745514154,-1.7994027066051959
1646167669369675500,8.974675537109375,0.43570732928011563,-1.1940958030432463,-2.2792449091553686
1646167669379657700,8.98465771484375,0.49838206784725186,-1.1661258460998534,-2.7589024027884004
1646167669389640700,8.994640625,0.5617535565068945,-1.153894141036272,-3.2932916035622357
1646167669399622700,9.00462255859375,0.560426691817306,-1.1269348224401474,-3.8727503646403547
1646167669409605600,9.014605712890624,0.3617044468929991,-1.185339665135741,-4.471096197018027
1646167669419587600,9.024587646484376,0.111723175907135,-1.3022265074163675,-5.144717342871427
1646167669429569800,9.03456982421875,-0.12288290435764938,-1.4061591755777596,-5.827593223804235
1646167669439552800,9.044552734375,-0.27439565433952956,-1.5954799704283475,-6.551817598691582
1646167669449534700,9.05453466796875,-0.2538544226247817,-1.8168237970054149,-7.1912360306918615
1646167669459516700,9.0645166015625,-0.03496854712646454,-1.97530229434669,-7.719690580719709
1646167669469499600,9.074499755859375,0.29844975301343946,-2.111707491567731,-8.115485549795627
1646167669479481600,9.084481689453124,0.6405658484697342,-2.0989906333357093,-8.281013381126522
1646167669489463800,9.0944638671875,0.7764275133986026,-2.011237531080842,-8.198162663960456
1646167669499446500,9.104446533203125,0.7073754583518952,-1.9564935489803552,-8.022794406616688
1646167669509428700,9.1144287109375,0.5618610720019788,-1.682351029151678,-7.946596717599034
1646167669519410700,9.12441064453125,0.33976847288422285,-1.326604577347636,-7.992470580023527
1646167669529393700,9.1343935546875,0.06964461411237716,-1.1689730522245168,-7.968787506619095
1646167669539375900,9.1443759765625,-0.2213069286327809,-1.12623982591331,-7.869113664945959
1646167669549358600,9.154358642578124,-0.4774585222840309,-1.3146002512991428,-7.562899598073959
1646167669559340800,9.1643408203125,-0.8022890268206596,-1.8573440234422682,-7.218986207404733
1646167669569322500,9.174322509765625,-1.062318192557618,-2.547235920616984,-6.8355784262150525
1646167669579305700,9.1843056640625,-1.2104512369733302,-3.202282129859924,-6.4752119133949275
1646167669589287700,9.19428759765625,-1.2037059274315833,-3.6225884398579598,-6.159670630729198
1646167669599269600,9.20426953125,-0.9962614468693732,-3.6896126423388718,-5.8911669935703275
1646167669609252600,9.214252685546874,-0.6903378873765468,-3.511221822303533,-5.542765059310198
1646167669619234800,9.22423486328125,-0.3974714509207755,-3.083696082445979,-5.111369784542918
1646167669629216800,9.234216796875,-0.17216975356340408,-2.572957806372642,-4.705163896089792
1646167669639199700,9.24419970703125,-0.044630620897747574,-2.1400994733154772,-4.375070940980315
1646167669649181700,9.254181640625,0.003630940380878746,-1.7000456757962703,-4.162384468111395
1646167669659164700,9.26416455078125,-0.056257966860011215,-1.3538497271478176,-3.9206577787190673
1646167669669147000,9.27414697265625,-0.15436872393488882,-1.1123708750367165,-3.7050866903245447
1646167669679128600,9.284128662109374,-0.22992628841809928,-0.8634615806639194,-3.531675996789336
1646167669689111800,9.29411181640625,-0.3633715398550033,-0.5930331129223108,-3.283335442215204
1646167669699093800,9.30409375,-0.6005458997052162,-0.2438543490707874,-2.9823247892051934
1646167669709075700,9.31407568359375,-0.8922621432125568,0.09151216252744197,-2.7186779444277285
1646167669719058700,9.32405859375,-1.1124363414883613,0.39285307040512557,-2.5436077932476997
1646167669729040600,9.33404052734375,-1.3410370073258877,0.6396931572884321,-2.46537012283504
1646167669739022800,9.34402294921875,-1.4476502928733825,0.7979682410120964,-2.29155143302083
1646167669749005800,9.354005859375,-1.4949109334811568,0.855692700228095,-2.046849527209997
1646167669758987800,9.36398779296875,-1.5322680197119711,0.8126993616759777,-1.7789473630756139
1646167669768970800,9.373970703125,-1.4649907192528246,0.7595943789541721,-1.5097756173968315
1646167669778952700,9.38395263671875,-1.4017724849261342,0.7372820093810558,-1.2488543981909752
1646167669788934700,9.3939345703125,-1.2673745358742772,0.6975847897648811,-0.9403443293362855
1646167669798918000,9.40391796875,-1.1656092018146067,0.7389373753726481,-0.5796440545171498
1646167669808899600,9.413899658203125,-1.205454963055998,0.8324374968469143,-0.24295886153578758
1646167669818881800,9.4238818359375,-1.141603983783722,1.00175069193542,0.06974982805252075
1646167669828864800,9.43386474609375,-1.010506099190563,1.2397370257556437,0.4819634324878454
1646167669838846700,9.4438466796875,-1.114790795660019,1.3534563439160585,0.9470452882796525
1646167669848828700,9.45382861328125,-1.1278265836481005,1.595749435019493,1.2853794175118207
1646167669858811600,9.463811767578125,-1.1805775653004646,1.8144155668199062,1.5822656840682028
1646167669868793600,9.473793701171875,-1.202181640473753,2.033029968433082,1.846106005591154
1646167669878776800,9.48377685546875,-1.1413831075746566,2.251053418415785,2.100684577772021
1646167669888758800,9.4937587890625,-1.0367840844590217,2.4414219687536356,2.357505960443616
1646167669898740700,9.50374072265625,-0.8965585982974618,2.59238643720299,2.635969850602746
1646167669908723700,9.5137236328125,-0.7913750532921403,2.706554375913739,2.933465773490071
1646167669918705700,9.52370556640625,-0.7493547244906426,2.824027785910666,3.1879595899969337
1646167669928687900,9.53368798828125,-0.6523975944302975,3.0218218100741505,3.398389808371663
1646167669938671400,9.54367138671875,-0.5771721845109016,3.324656171379983,3.5828415358811614
1646167669948653600,9.553653564453125,-0.5203835448402911,3.735216747911274,3.730775258332491
1646167669958635300,9.56363525390625,-0.5180488913476466,4.1399312287628645,3.921086233264208
1646167669968618500,9.573618408203124,-0.5319825780235231,4.624430609469115,4.090508733946085
1646167669978600200,9.58360009765625,-0.5648128344796598,5.0814533697068685,4.2141310219615695
1646167669988582400,9.59358251953125,-0.5628969178557396,5.475608170360326,4.31107280832231
1646167669998565400,9.6035654296875,-0.4837468818385154,5.882175877863168,4.333398037377
1646167670008547300,9.61354736328125,-0.4047065898060798,6.230731541380286,4.2319595241189
1646167670018530300,9.6235302734375,-0.339545331652835,6.626543461591005,3.999699166730046
1646167670028512500,9.633512451171875,-0.2897453087605536,6.850965964961052,3.7762224197775125
1646167670038494500,9.643494384765624,-0.3116263011790812,6.93461455450654,3.67456529533267
1646167670048477400,9.6534775390625,-0.45048283707499504,6.9446040336012835,3.5996243283778426
1646167670058459400,9.66345947265625,-0.6221474175952375,6.803373023658991,3.6266648955166336
1646167670068441300,9.67344140625,-0.7130490470089018,6.669117697948217,3.653170040604472
1646167670078424600,9.683424560546875,-0.6287817410431802,6.717846949803829,3.608760405513644
1646167670088406300,9.69340625,-0.4204793284773826,6.799826729354262,3.5117999144524332
1646167670098388500,9.703388427734374,-0.14813552863374352,6.902371158027648,3.391593572360277
1646167670108371200,9.71337109375,0.04546162836179137,6.9161290497452015,3.3058114779174326
1646167670118353400,9.723353515625,0.05806859647855162,6.799228763461112,3.323026232090592
1646167670128335400,9.73333544921875,-0.16820194591097531,6.311932737773656,3.494702064657211
1646167670138318300,9.743318359375,-0.5875496400099247,5.6313563659548755,3.6472757218688723
1646167670148300300,9.75330029296875,-0.9559211801093072,4.867845690339803,3.712156482580304
1646167670158283500,9.763283447265625,-1.2367793449938296,4.23342287466973,3.605039923685789
1646167670168265200,9.77326513671875,-1.3784674510538577,3.826067523920536,3.1938533242106435
1646167670178247400,9.783247314453124,-1.2599649902701378,3.628604046885669,2.6317028408080336
1646167670188230400,9.79323046875,-0.9637468322336673,3.58909182844758,2.0058295345574617
1646167670198212400,9.80321240234375,-0.47984680566005405,3.680033789871633,1.3694640603870152
1646167670208194300,9.8131943359375,0.10403554401397705,3.8440634915992615,0.7512520825445651
1646167670218177300,9.82317724609375,0.6556161911506205,3.975360844287276,0.19276129069328307
1646167670228159500,9.833159423828125,1.1041489901363848,3.957906436139345,-0.2997644523411989
1646167670238141200,9.84314111328125,1.3796481852710247,3.8220004206120968,-0.8085562705218792
1646167670248124400,9.85312451171875,1.43086983846426,3.6677941937625405,-1.340334996536374
1646167670258106400,9.8631064453125,1.4082956030845641,3.2204876486361025,-1.7568325619012117
1646167670268088300,9.87308837890625,1.2703063515424728,2.6017864259719845,-1.92826698692739
1646167670278071300,9.8830712890625,0.970409212732315,1.9161323124974965,-1.9338065008759497
1646167670288053200,9.89305322265625,0.5869675292730331,1.0775444763273,-1.7721020272254944
1646167670298036200,9.9030361328125,0.23690431073717771,0.28689912554919716,-1.5485791030436753
1646167670308018400,9.913018310546875,-0.048882323525473476,-0.39190029972493645,-1.2313567354232071
1646167670318000400,9.92300048828125,-0.32741993650794027,-0.9842267256826162,-0.8721785556048154
1646167670327983400,9.9329833984375,-0.47595052887387573,-1.3948241270929573,-0.5290098458230496
1646167670337965600,9.942965576171876,-0.5437340252894908,-1.6944190680861473,-0.17307751605808733
1646167670347947300,9.952947265625,-0.5877203934669494,-1.9182558805227279,0.1290811379432678
1646167670357930500,9.962930419921875,-0.5683750570058822,-2.0550924548983573,0.3504676346182823
1646167670367912200,9.972912109375,-0.48918994967527685,-2.1221949833124873,0.48101533798277374
1646167670377894400,9.982894287109374,-0.388482600235939,-2.170873966285586,0.5071376212328672
1646167670387877400,9.99287744140625,-0.3362029624223709,-2.220610349357128,0.4862918170809746
1646167670397859300,10.002859375,-0.28010884435456246,-2.236156878057122,0.37770635467767716
1646167670407841500,10.012841552734375,-0.25231113870553673,-2.2131296382129193,0.14661211845874786
1646167670417824300,10.02282421875,-0.22629304648227988,-2.1208225259155036,-0.16876374451220036
1646167670427806500,10.032806396484375,-0.23716632267422974,-1.9658868157476186,-0.5272574491977692
1646167670437789400,10.04278955078125,-0.3338227162223309,-1.8308441390514372,-0.8578834882706403
1646167670447771400,10.052771484375,-0.4556395622510463,-1.6676684238046406,-1.13425946623981
1646167670457753300,10.06275341796875,-0.6099990069009363,-1.5119102913379667,-1.4080495193690061
1646167670467736600,10.072736572265624,-0.7730337793070823,-1.4632330619305371,-1.6306407156586646
1646167670477718300,10.08271826171875,-0.9333248059630394,-1.4782798244148492,-2.0387772799134254
1646167670487700500,10.092700439453125,-0.9218167389988898,-1.6597838080346583,-2.4977269165605307
1646167670497683200,10.10268310546875,-0.7887141635198146,-1.8827111044108866,-2.9813240877300498
1646167670507665400,10.11266552734375,-0.5796691889584065,-2.155692763766646,-3.6191175488770004
1646167670517647400,10.1226474609375,-0.3219254307448864,-2.4808090995073315,-4.215243367117643
1646167670527630300,10.13263037109375,-0.011076616744324565,-2.704857508867979,-4.757487957566976
1646167670537612500,10.142612548828126,0.17522453802414237,-2.765377151760459,-5.297319641655683
1646167670547594200,10.15259423828125,0.18723763190098106,-2.78394975028336,-5.709899156793951
1646167670557577500,10.162577392578125,0.08360058568529784,-2.7334780386745927,-6.0242462612390515
1646167670567559400,10.172559326171875,-0.10402385357618331,-2.5012930846095083,-6.232299229088425
1646167670577541400,10.182541259765625,-0.4477975435137748,-2.1736510297834872,-6.406290937381982
1646167670587524400,10.1925244140625,-0.7205167525410652,-1.86161161775887,-6.595571984744072
1646167670597506300,10.20250634765625,-0.8148480641424656,-1.5652280400276184,-6.8405053612232205
1646167670607489300,10.2124892578125,-0.7191571546256542,-1.4206582410514355,-7.109210073912143
1646167670617471500,10.222471435546876,-0.3713070090293884,-1.2924527168989182,-7.3798086375236505
1646167670627453400,10.232453369140625,0.20039394099619237,-1.045899045741558,-7.684735002672672
1646167670637436400,10.2424365234375,0.7824304801404476,-0.8278788106292486,-7.993339179551601
1646167670647418400,10.25241845703125,1.1677765359163284,-0.9410241282939911,-7.844528089743852
1646167670657400300,10.262400390625,1.3059411440253257,-1.170503915053606,-7.51815678550601
1646167670667383600,10.272383544921874,1.23853174161911,-1.5019184741556644,-7.19662824512422
1646167670677365200,10.282365234375,0.9335258814930916,-2.1037959877908228,-6.738771664410829
1646167670687347500,10.292347412109375,0.5007704242885113,-2.7038059539884327,-6.262458805030584
1646167670697330400,10.302330322265625,0.25086393557190895,-3.1123750644415615,-5.8266883839190005
1646167670707312400,10.3123125,0.26035774010419843,-3.2474311851412057,-5.491643943881988
1646167670717294300,10.32229443359375,0.5435591801792383,-3.043835781222582,-5.194448465245962
1646167670727277300,10.33227734375,0.9474959546566009,-2.5437404797166585,-4.831872167421877
1646167670737259300,10.34225927734375,1.2794167097151279,-1.8824229351192712,-4.492610109689831
1646167670747241200,10.3522412109375,1.5350187797248362,-1.1796101815730333,-4.14652346663475
1646167670757224400,10.362224365234376,1.5854443141043186,-0.4977963769137859,-3.8885038140892982
1646167670767206400,10.372206298828125,1.4898808303594588,0.09872457812428474,-3.6158272751599547
1646167670777188400,10.382188232421875,1.2511539073050022,0.557187308037281,-3.2994261607944964
1646167670787171300,10.39217138671875,0.8646551743626594,0.8622767547935247,-2.964152588176727
1646167670797153500,10.402153564453124,0.4237058893084526,1.0638993973344564,-2.61647253845036
1646167670807135200,10.41213525390625,-0.03344871714804321,1.2126432671248912,-2.3007968157500027
1646167670817118500,10.422118408203126,-0.4977929063150659,1.3230442545175551,-2.041866478100419
1646167670827100200,10.43210009765625,-0.8414145840287208,1.4210311660170554,-1.7851473867595196
1646167670837083400,10.44208349609375,-1.2054115623056887,1.4461170919567345,-1.584109850630164
1646167670847065300,10.4520654296875,-1.5156138220310211,1.4178683180719613,-1.433525905930996
1646167670857047300,10.46204736328125,-1.7104571796953678,1.367877667978406,-1.3548100966125727
1646167670867030300,10.4720302734375,-1.859558192360401,1.335599784708023,-1.3802315381169319
1646167670877012200,10.48201220703125,-1.9501988327503204,1.3561200101673603,-1.4200591061145067
1646167670886994400,10.491994384765626,-2.0525942083418367,1.352405373558402,-1.4921172111093997
1646167670896977400,10.501977294921875,-2.11356904765591,1.3951198951691388,-1.544862712869048
1646167670906959400,10.51195947265625,-2.0630419525980948,1.5122165808081627,-1.55123750859797
1646167670916941300,10.52194140625,-2.0850093081258234,1.6400971107900142,-1.528452260816097
1646167670926924500,10.531924560546875,-2.0899510023117065,1.6981413034796713,-1.36447575058043
1646167670936906200,10.54190625,-2.012663472230732,1.7809505195915698,-1.1041378842204808
1646167670946888400,10.551888427734376,-1.9153508067309855,1.8886083457559346,-0.7470943783432245
1646167670956871400,10.561871337890626,-1.797380114736408,2.0058190131634475,-0.3409235612034797
1646167670966853400,10.571853271484375,-1.6370402074374257,2.129005247849226,0.11073299582600593
1646167670976835600,10.581835693359375,-1.5444494558930395,2.316976966178417,0.5583551827728748
1646167670986818600,10.591818603515625,-1.4562088623821734,2.5246765905454756,1.0034855529040099
1646167670996800500,10.601800537109375,-1.3405191209316254,2.6949045623913404,1.4345219312310218
1646167671006782500,10.611782470703124,-1.210812617631629,2.916563738527894,1.8871096316307783
1646167671016765400,10.621765380859374,-1.0767631897564978,3.0557343088090416,2.37238087349236
1646167671026747400,10.631747314453126,-0.9348154829122125,3.1916189892873166,2.8564275419950484
1646167671036730600,10.641730712890626,-0.8133866132877766,3.3890397962242362,3.281284354904294
1646167671046712300,10.65171240234375,-0.7417734755814075,3.578515781636536,3.6638533471822736
1646167671056694500,10.661694580078125,-0.6576245352983474,3.7459833488583563,3.9999470040112732
1646167671066677500,10.671677490234375,-0.5431482612907886,3.9236242273092268,4.301980570328236
1646167671076659500,10.681659423828124,-0.4129600388884544,4.166315962341428,4.543923532819748
1646167671086641700,10.6916416015625,-0.2808114761985838,4.454351398444175,4.8029742819786065
1646167671096624400,10.701624267578126,-0.14727620839066802,4.704728427281975,5.013112823930382
1646167671106606600,10.711606689453125,0.0050746729157865045,4.990189628982543,5.099584654203057
1646167671116588300,10.72158837890625,0.17550846953205762,5.248666377645731,5.102389774751663
1646167671126571500,10.731571533203125,0.25550613535456357,5.5157689158350225,5.0994174809426065
1646167671136553500,10.741553466796875,0.27141229114718735,5.9124038428664205,5.01787317019999
1646167671146535400,10.751535400390624,0.23237667724490163,6.323164325883984,4.842532969906926
1646167671156518400,10.761518310546874,0.19046645775437354,6.655669018310308,4.657589074966311
1646167671166500600,10.77150048828125,0.09344517641663551,6.832818313851952,4.5251282314568755
1646167671176482600,10.781482666015625,0.05178038305453956,6.944215911066531,4.515190190288425
1646167671186465500,10.791465576171875,-0.06288637202382087,6.876511909627914,4.5544437577903265
1646167671196447500,10.801447509765625,-0.06835289380140602,6.822737064820528,4.446126590934395
1646167671206429400,10.811429443359375,0.07963051301054656,6.824217074245214,4.046034216925501
1646167671216412700,10.82141259765625,0.38918519554734227,6.913469475147128,3.432181603336334
1646167671226394400,10.831394287109376,0.7316917150933295,6.950229472267627,2.8813790279000995
1646167671236376600,10.84137646484375,0.9871090031206607,6.890359233194589,2.541151047745347
1646167671246359300,10.851359375,1.0386263513248413,6.644499974042176,2.4803876592248675
1646167671256341500,10.861341552734375,0.7850689388852566,6.060462068480253,2.661951264077425
1646167671266324500,10.871324462890625,0.40197329238466917,5.248907200664282,2.834029832226038
1646167671276306400,10.881306396484375,-0.0078911185760051,4.513388401563465,2.866381949776411
1646167671286288400,10.891288330078124,-0.3906113558929413,3.9712478560104962,2.6970050418019293
1646167671296271600,10.901271728515624,-0.5459715020179748,3.5833246432229875,2.311670676463842
1646167671306253300,10.91125341796875,-0.4664835392832756,3.3664670221492647,1.7810411204844712
1646167671316235500,10.921235595703125,-0.14102759632468223,3.3422558332175014,1.2334335416972637
1646167671326218200,10.93121826171875,0.3380546547036618,3.472592816440761,0.7273217563807964
1646167671336200400,10.941200439453125,0.9174679692048578,3.754270700210333,0.2341173834323883
1646167671346182400,10.951182373046874,1.365934132695198,3.9985084956407544,-0.15322890625
1646167671356165400,10.961165283203124,1.6182114421963691,4.136980562263727,-0.5382961450845003
1646167671366147600,10.971147705078126,1.7123545377492904,4.135150716488063,-0.9381552948594093
1646167671376129300,10.98112939453125,1.5499685115754605,3.7878131965890525,-1.1221820749551057
1646167671386112500,10.991112548828125,1.1013516145028173,3.312701237431168,-1.0302052175253629
1646167671396094500,11.001094482421875,0.3680217768136412,2.6564637725770472,-0.800178902798891
1646167671406076400,11.011076416015625,-0.3947664297457784,2.0236048452228306,-0.509060698249936
1646167671416059400,11.021059326171875,-1.1336463027775288,1.5143915867596864,-0.24576924278140067
1646167671426041300,11.031041259765624,-1.7323684211216865,1.040960420295596,-0.005936988833546638
1646167671436023600,11.0410234375,-2.1504010870993135,0.6700123077064752,0.2970797433018684
1646167671446006500,11.051006591796876,-2.4637539198100566,0.39599136843085286,0.48495501551926135
1646167671455988500,11.060988525390625,-2.606899823462963,0.08089782953262328,0.5948480533897876
1646167671465970400,11.070970458984375,-2.483632340234518,-0.26655834830999375,0.4747305586248636
1646167671475953400,11.080953369140625,-2.2322166159987447,-0.7427303379148245,0.15532383270263672
1646167671485935400,11.090935302734374,-1.662499788995087,-1.218089257571101,-0.2815957584440708
1646167671495917600,11.10091748046875,-1.0194810674805193,-1.6683488072842358,-0.8262047399371862
1646167671505900300,11.110900390625,-0.4338194331742823,-2.134590354505181,-1.4194424355208872
1646167671515882500,11.120882568359375,0.03846621651649475,-2.6007354556143283,-1.9009382504969834
1646167671525864400,11.130864501953125,0.3656593585312366,-2.9198890835583207,-2.3059528833389282
1646167671535847400,11.140847412109375,0.4538461029630154,-3.124589818370342,-2.6680653630435467
1646167671545829600,11.15082958984375,0.3972994553547352,-3.2253602231085297,-3.021784692934155
1646167671555811300,11.160811279296874,0.2206980760194361,-3.2731068936675785,-3.4588317098528143
1646167671565794600,11.170794677734374,0.043369113061949606,-3.2717209922671318,-3.9238188730984924
1646167671575776300,11.1807763671875,-0.14911489505991338,-3.296931421369314,-4.356114311575889
1646167671585759500,11.190759521484376,-0.2901308009468019,-3.2786066601276396,-4.701830952274799
1646167671595741400,11.200741455078125,-0.43795894413180647,-3.38602950849235,-4.870021865335106
1646167671605723400,11.210723388671875,-0.4630522496603429,-3.506600592243671,-5.023107563722133
1646167671615706400,11.220706298828125,-0.40081930004395544,-3.608976678612828,-5.174675258761644
1646167671625688600,11.2306884765625,-0.28815533615536987,-3.717301444253325,-5.193922395545244
1646167671635670500,11.24067041015625,-0.12213818693757056,-3.714015846711397,-5.193483419606089
1646167671645653500,11.250653564453126,0.1578768781863153,-3.659322718015313,-5.144865811431408
1646167671655635500,11.260635498046875,0.4277623250924051,-3.574080721798539,-4.99870143674016
1646167671665617400,11.270617431640625,0.6367898370623588,-3.359261913076043,-4.866161098253727
1646167671675600600,11.2806005859375,0.8342332942225038,-3.097679599612951,-4.8284746339380735
1646167671685582300,11.290582275390625,0.9605868338327854,-2.6630858210653066,-4.888058165024221
1646167671695564500,11.300564453125,1.0170752484478056,-2.13393978164196,-4.986135969677568
1646167671705547500,11.310547607421874,1.00705186708346,-1.4736001421660183,-5.1630912039518355
1646167671715529500,11.320529541015626,0.9036053019385785,-0.7459305952608585,-5.466181001323461
1646167671725511400,11.330511474609375,0.73100292911157,-0.1663128442287445,-5.819768229267001
1646167671735494400,11.340494384765625,0.509707690916583,-0.023856676405668256,-5.983575228154659
1646167671745476600,11.3504765625,0.2513350602149963,-0.17981413083672523,-6.085796416223049
1646167671755458300,11.360458251953125,0.059938189742714164,-0.3442506597995758,-6.3380105973601335
1646167671765441500,11.370441650390624,0.055651306203752755,-0.22090075898468492,-6.79360040218532
1646167671775423500,11.380423583984374,0.02964928833246231,-0.06676409024000167,-7.12313046271503
1646167671785405400,11.390405517578126,-0.13121347379684448,-0.18138532567620277,-7.110951949143409
1646167671795388400,11.400388427734375,-0.40944713539667427,-0.46217035225927827,-6.933261970853805
1646167671805370600,11.41037060546875,-0.5887912375688552,-0.8335393206089734,-6.6720707025349135
1646167671815352300,11.420352294921875,-0.8430197542030364,-1.3979583334654568,-6.301968977642059
1646167671825335600,11.43033544921875,-0.9773311940152197,-2.0858909132659433,-5.878337907135486
1646167671835317200,11.440317138671874,-0.7788261720381676,-2.7291069839835167,-5.461179247513413
1646167671845299500,11.450299560546876,-0.41584406989216804,-3.14147197958827,-4.979396432289481
1646167671855282400,11.460282470703126,0.026001798675581812,-3.074150839987397,-4.5052194158941505
1646167671865264400,11.470264404296875,0.38992278910689054,-2.6281577155470845,-4.129006514644622
1646167671875246600,11.48024658203125,0.7118237429976463,-1.9004267938435075,-3.7928468068420886
1646167671885229300,11.490229248046875,0.9334371072310954,-1.1604875479519368,-3.354015829116106
1646167671895211500,11.50021142578125,0.9751578685641288,-0.39289340241551396,-2.9612592048227784
1646167671905193500,11.510193359375,0.886454406781867,0.47917117142081256,-2.6682518255263568
1646167671915176400,11.520176513671874,0.676116396735236,1.315508013793826,-2.421135844311118
1646167671925158400,11.530158447265626,0.39474509469680485,1.8697996003895996,-2.1380612454861403
1646167671935140000,11.54014013671875,0.12608370969295501,2.1563059272289276,-1.9319214177817106
1646167671945123000,11.550123046875,-0.07510171047449112,2.283254144796729,-1.7517115656256674
1646167671955105300,11.560105224609375,-0.2634966226518154,2.226190195316076,-1.558027899390459
1646167671965087200,11.570087158203124,-0.4347895933806896,2.0746143169701097,-1.455225112041831
1646167671975070200,11.5800703125,-0.6133925948619842,1.9029063356995581,-1.397702897399664
1646167671985052200,11.59005224609375,-0.7994644709192216,1.715596880671382,-1.3450953428059815
1646167671995034000,11.6000341796875,-0.8663795870024711,1.577270944520831,-1.3264672147035599
1646167672005017300,11.610017333984375,-0.8476234486062079,1.4382856676787137,-1.2444354127049446
1646167672014999000,11.6199990234375,-0.8921732958853245,1.3103285653293133,-0.9806880301624535
1646167672024982300,11.629982177734375,-0.9928605523847043,1.138797109669447,-0.5391910480976104
1646167672034964200,11.639964111328124,-1.0602771151840686,1.011335097360611,-0.06810673702061176
1646167672044946200,11.6499462890625,-1.1820878237329422,0.9550339489459991,0.35607203049659725
1646167672054929200,11.65992919921875,-1.2825041543364524,0.9651894322574138,0.8327771040648222
1646167672064911000,11.6699111328125,-1.3447230023622512,1.0599152961343525,1.2833856133460997
1646167672074893300,11.679893310546875,-1.332250474280119,1.2414298011481761,1.7704601052373647
1646167672084876300,11.689876220703125,-1.2786357884705066,1.4127271557912229,2.2532968134284017
1646167672094858200,11.699858154296875,-1.1903636307775973,1.5563254793867467,2.702554492622614
1646167672104840200,11.709840087890624,-1.026102531446889,1.724481613394618,3.1186048987418413
1646167672114823200,11.7198232421875,-0.8052000919617712,1.866660133320093,3.5182565432459114
1646167672124805000,11.72980517578125,-0.6465841589111835,2.0291706626564263,3.8372120182693004
1646167672134787300,11.739787353515625,-0.47623102631568903,2.239847841529548,4.109303450787067
1646167672144770000,11.74977001953125,-0.3213164320010692,2.4655665221899747,4.346592449992895
1646167672154752300,11.759752197265625,-0.2815267848610878,2.768765332894027,4.560345675310492
1646167672164734200,11.769734130859375,-0.33255919909253717,3.058805386817455,4.788009937080741
1646167672174717200,11.77971728515625,-0.37520796199068424,3.3146108704447745,4.964483525317907
1646167672184699400,11.789699462890624,-0.44335634619593617,3.5464854433864352,5.129859380957484
1646167672194681000,11.79968115234375,-0.45496495092511174,3.8419668115809555,5.240622187399864
1646167672204664300,11.809664306640625,-0.4233645285248756,4.12983244407475,5.2619344400197265
1646167672214646000,11.81964599609375,-0.4147757100082934,4.367510442598164,5.259258498808741
1646167672224628200,11.829628173828125,-0.37476292163692415,4.543286403959989,5.088783858725428
1646167672234611200,11.839611083984375,-0.26752397847175596,4.7333904581427575,4.656371515870094
1646167672244593200,11.84959326171875,-0.19227496848106382,4.899382692115009,4.095871137762069
1646167672254575400,11.859575439453126,-0.05425897506251931,5.049218741056323,3.5409447603940962
1646167672264558300,11.869558349609376,0.23543358059749006,5.257492658179998,2.9988311028480528
1646167672274540300,11.879540283203125,0.466794212667644,5.484373660618067,2.521505267032981
1646167672284522200,11.889522216796875,0.5724573578834533,5.512070645838976,2.228978364729881
1646167672294505200,11.899505126953125,0.6357295143544673,5.453325026881695,2.207735670214891
1646167672304487200,11.909487060546875,0.5778934114575386,5.469734894412755,2.210559495463967
1646167672314469000,11.91946923828125,0.5290625989235938,5.621491974544525,2.132923298075795
1646167672324452000,11.9294521484375,0.633802784075588,6.045446870177984,1.95875974034667
1646167672334434300,11.939434326171876,0.6747673932790755,6.474687012737989,1.6270803928285835
1646167672344416300,11.949416259765625,0.7825321869492531,6.8203381869852535,1.2649474548578261
1646167672354399200,11.959399169921875,0.8708031755983829,6.913648923367261,1.0272662414640188
1646167672364381400,11.96938134765625,0.7286508860927075,6.4842813550353045,1.068941483154893
1646167672374363100,11.979363037109374,0.38241855095662175,5.567217363521457,1.3494769188910722
1646167672384346400,11.989346435546874,-0.017243468810990453,4.519769919294118,1.6116683041632174
1646167672394328000,11.999328125,-0.5162218220509588,3.504105268296599,1.7460522246897219
1646167672404311300,12.009311279296876,-0.8266388935707509,2.7798838160187005,1.7105986339926718
1646167672414293200,12.019293212890625,-0.9640985682807862,2.4367709280773995,1.4994319180369375
1646167672424275200,12.029275146484375,-0.8510719085596501,2.4088757899358866,1.2348054145723582
1646167672434258200,12.039258056640625,-0.4791593348525464,2.53726631526649,0.9723229373991489
1646167672444240100,12.049240234375,-0.007816080578416585,2.761012819071114,0.7308978613018989
1646167672454222000,12.05922216796875,0.5900291818659752,3.0491359334573147,0.4062152408033609
1646167672464205300,12.069205322265624,1.1488180068157612,3.2320512451797723,0.026747137150168417
1646167672474187000,12.07918701171875,1.5534452477753162,3.1597371195971964,-0.2814168947458267
1646167672484169200,12.089169189453125,1.852968146445602,2.959542464032769,-0.5770908629029989
1646167672494152200,12.099152099609375,1.8964660735189913,2.521222942960262,-0.7367290516734123
1646167672504134100,12.109134033203125,1.7044553089320658,1.8887275882214307,-0.6535463260740041
1646167672514116400,12.119116455078125,1.254057812052965,1.11271866556108,-0.5028565829128027
1646167672524099000,12.12909912109375,0.6797042651593684,0.4734960483938455,-0.40712358781993385
1646167672534081300,12.139081298828126,0.05265139373540878,-0.03869359553158283,-0.36389760955572126
1646167672544063000,12.14906298828125,-0.4010580041706562,-0.3652560384273529,-0.2806178533226251
1646167672554046200,12.159046142578125,-0.7367021636664867,-0.5647673879027366,-0.12445581623017787
1646167672564028200,12.169028076171875,-1.019643491500616,-0.622581863489747,0.034817630881071086
1646167672574010000,12.179010009765625,-1.1931262273587286,-0.6522539481759071,0.25800036332309245
1646167672583993000,12.1889931640625,-1.2245137376606463,-0.7329127082556486,0.484054851809144
1646167672593975300,12.198975341796874,-1.1792588839173317,-0.8497703244417906,0.5982143149524927
1646167672603957200,12.208957275390626,-1.150427780099958,-0.9518348606437445,0.5249164390295744
1646167672613940200,12.218940185546876,-1.1480151660002766,-1.1421218701779843,0.29683015245497224
1646167672623922200,12.228922119140625,-1.092282026731968,-1.3344634741544723,-0.004639350238442421
1646167672633904000,12.238904052734375,-1.1065782631099224,-1.5717892982393502,-0.34073768324255943
1646167672643887400,12.248887451171875,-1.1052467222452163,-1.821862960216403,-0.6046925710558891
1646167672653869000,12.258869140625,-1.0830666007496417,-1.966917327839136,-0.8798597577571868
1646167672663851300,12.268851318359374,-1.1448013185203074,-2.0915064150601625,-1.0888502987176178
1646167672673834200,12.278834228515626,-1.2248610897935925,-2.1857319281995293,-1.2384393871605395
1646167672683816200,12.288816162109375,-1.3555086002707482,-2.284701420995593,-1.3854372900664806
1646167672693798400,12.29879833984375,-1.4529973529897628,-2.396083820641041,-1.56406834859848
1646167672703781000,12.308781005859375,-1.436588654502481,-2.516372580319643,-1.758441166141629
1646167672713763300,12.318763427734375,-1.333278063762188,-2.6104776819497344,-2.0212866314083335
1646167672723745000,12.3287451171875,-1.1060440101027489,-2.6851304796129463,-2.2713895194798708
1646167672733728300,12.338728271484374,-0.8734628963269293,-2.7665222301423547,-2.542459792256355
1646167672743710200,12.348710205078126,-0.6886321063719689,-2.926242836499214,-2.7727035491257905
1646167672753692200,12.358692138671875,-0.5088860723353922,-2.919637154623866,-2.997004471942782
1646167672763675100,12.368675048828125,-0.4059038367666304,-2.903670354685187,-3.201048204150796
1646167672773657300,12.3786572265625,-0.33548853054270145,-2.845680522531271,-3.313457024234533
1646167672783639300,12.388639404296875,-0.37818566262722014,-2.6839456537425517,-3.41618733086884
1646167672793622300,12.398622314453124,-0.4278606709003448,-2.4930267760455607,-3.6900071946144104
1646167672803604200,12.408604248046874,-0.2906981525059789,-2.286971704015136,-4.168565202572942
1646167672813586200,12.418586181640626,0.02174063409976661,-1.9957664057046174,-4.8196191273093225
1646167672823569400,12.4285693359375,0.4883141166888177,-1.8981816452652214,-5.565056970617174
1646167672833551000,12.438551025390625,1.1477145025532691,-1.915980336806178,-6.370407138574123
1646167672843533300,12.448533203125,1.8873393487334251,-2.0950643998026846,-7.098918397000432
1646167672853516000,12.45851611328125,2.488410222160816,-2.2115964372962713,-7.769779430490732
1646167672863498200,12.468498291015624,2.813238388609886,-2.123689605784416,-8.47475491502881
1646167672873480200,12.478480224609376,2.8606010282874106,-1.6667144840806722,-9.138889855134487
1646167672883463200,12.488463134765626,2.4831436799347397,-1.0658674825370311,-9.475009815448521
1646167672893445400,12.4984453125,1.619655211263895,-0.519243654090166,-9.534491347464918
1646167672903427000,12.508427001953125,0.6037795478641986,-0.16687983046174049,-9.401389283442496
1646167672913410300,12.518410400390625,-0.5302724131047726,-0.2484820088714361,-9.007034576302766
1646167672923392300,12.528392333984375,-1.6068343081355094,-0.6933768166810274,-8.4377517568022
1646167672933374200,12.538374267578124,-2.296563123703003,-1.2738964849889278,-7.751053687232733
1646167672943357200,12.548357177734376,-2.4681530315518376,-1.8398603891998528,-6.940613502660393
1646167672953339100,12.558339111328126,-2.0595206466041502,-1.919326140102744,-6.262442438417673
1646167672963321000,12.568321044921875,-1.209722922698781,-1.5546043546825647,-5.950942540097237
1646167672973304300,12.57830419921875,0.057315951480343935,-1.2493781298041342,-5.611172825103998
1646167672983286000,12.5882861328125,1.2534615997254848,-0.9360767350196838,-5.078128609198331
1646167672993268200,12.598268310546874,2.1083003134727476,-0.6178980895876884,-4.57282580217719
1646167673003251200,12.608251220703124,2.6059552360892293,-0.41380818015038967,-4.016922688731551
1646167673013233200,12.618233154296876,2.7393758645415303,-0.23447277274131773,-3.532882449969649
1646167673023215400,12.62821533203125,2.5412954246520996,0.1587485464543104,-3.2088837200820444
