time,seconds_elapsed,z,y,x,a,ave,std
1.64617E+18,0.020477539,0.240960381,-0.980361867,0.871631735,1.33375904,0.992747436,0.310475261
1.64617E+18,0.030459473,0.128209616,-0.832867413,0.966099241,1.281972533,0.906302503,0.323561393
1.64617E+18,0.040442383,-0.142702836,-0.623192981,0.997405941,1.184716085,0.829755753,0.316091726
1.64617E+18,0.050424561,-0.459726466,-0.426597227,0.972816566,1.15745656,0.7723617,0.298019212
1.64617E+18,0.06040625,-0.776107122,-0.131142747,0.790536557,1.115566552,0.727853717,0.269006515
1.64617E+18,0.070388428,-0.967529858,0.132468735,0.650696709,1.173485491,0.688732224,0.236226831
1.64617E+18,0.080371338,-0.833000976,0.258586639,0.563416339,1.038362002,0.639417181,0.172857226
1.64617E+18,0.090353516,-0.440567008,0.372019541,0.425471218,0.716605599,0.61442686,0.124742725
1.64617E+18,0.100335449,-0.169130824,0.421207058,0.294162029,0.54088069,0.637857673,0.159028414
1.64617E+18,0.110318359,-0.043552726,0.362324661,0.12163411,0.384669802,0.690938144,0.200879805
1.64617E+18,0.120300537,0.135406834,0.438351962,0.098813718,0.46930971,0.75482062,0.194810351
1.64617E+18,0.130282227,0.184403212,0.45594724,0.157749891,0.516505042,0.814639058,0.189730464
1.64617E+18,0.140264404,0.138420629,0.518375639,0.291844473,0.610775548,0.87656991,0.18327339
1.64617E+18,0.150247559,0.133230074,0.516437949,0.472252259,0.712376729,0.93148179,0.177584995
1.64617E+18,0.160229492,0.032484804,0.461932744,0.556999238,0.724351623,0.965744111,0.164582789
1.64617E+18,0.17021167,-0.149818221,0.5100614,0.424555857,0.680335069,1.004130262,0.147704796
1.64617E+18,0.180194336,0.012038813,0.736670599,0.280782396,0.788458787,1.059275613,0.116078401
1.64617E+18,0.190176514,0.404300932,0.75542966,0.412436307,0.95091373,1.099033162,0.07852473
1.64617E+18,0.200158203,0.707946609,0.575679243,0.562062805,1.071685396,1.099444698,0.077754386
1.64617E+18,0.210140381,0.735491034,0.485523171,0.520443385,1.023494567,1.070134951,0.124114995
1.64617E+18,0.220123535,0.74318685,0.439687302,0.627608167,1.067494088,1.058863412,0.132662649
1.64617E+18,0.230105469,0.714542354,0.412822092,0.780435507,1.135813557,1.068450927,0.136353056
1.64617E+18,0.240087646,0.77259473,0.437156907,0.74655618,1.159894352,1.109476903,0.198160458
1.64617E+18,0.250070557,0.677343966,0.594865589,0.548055615,1.05499994,1.202272643,0.355139495
1.64617E+18,0.26005249,0.782675979,0.658846186,0.42600043,1.108213135,1.371780889,0.578613511
1.64617E+18,0.270034424,1.01311672,0.671101272,0.201297502,1.231788574,1.588389787,0.801801776
1.64617E+18,0.280016357,0.981262031,0.666166154,-0.004980565,1.186034284,1.823835395,0.986852278
1.64617E+18,0.289999512,0.635821869,0.711357879,-0.042202773,0.955029086,2.085542432,1.120918595
1.64617E+18,0.299981445,0.394994174,0.668938541,0.051961512,0.778587932,2.348154388,1.132859749
1.64617E+18,0.309963379,0.676653645,0.608663813,-0.03445141,0.910779168,2.609828971,1.038365158
1.64617E+18,0.319946533,1.087943121,0.409288072,-0.047864744,1.163369242,2.873746859,0.89903103
1.64617E+18,0.329928223,1.515124577,0.235612006,0.198058539,1.546073312,3.146631453,0.738227205
1.64617E+18,0.3399104,2.054999516,0.198934426,0.310687997,2.087851754,3.418605687,0.583170741
1.64617E+18,0.349892334,2.71510067,0.216883925,0.37966158,2.750082399,3.691935212,0.533854564
1.64617E+18,0.359875488,3.225250918,0.416010074,0.381767613,3.27430212,3.932557578,0.593995874
1.64617E+18,0.369857666,3.467165823,0.908200886,0.122813017,3.586244656,4.133350659,0.671822572
1.64617E+18,0.379839355,3.512955514,1.282330551,-0.691647947,3.803104649,4.24154477,0.66205133
1.64617E+18,0.38982251,3.20451325,1.454508488,-0.663419558,3.581148646,4.235244684,0.666478509
1.64617E+18,0.399804443,3.046597647,1.478961377,-0.243325649,3.395333761,4.17137133,0.751312497
1.64617E+18,0.409786377,3.232284469,1.466540579,0.06162775,3.549958048,4.176352878,0.746298917
1.64617E+18,0.419768555,3.643557578,1.337323832,0.292219444,3.892215187,4.184251156,0.74001935
1.64617E+18,0.429751465,4.061830921,1.109104274,0.68454396,4.26581565,4.18521509,0.739644505
1.64617E+18,0.439733643,4.51887034,1.182998947,1.193223696,4.821147006,4.155667621,0.741733365
1.64617E+18,0.449715332,4.649773433,1.368323366,1.759201629,5.15630606,4.078587436,0.707848876
1.64617E+18,0.459698486,4.541864262,1.25646575,2.386367021,5.282232929,4.048367044,0.666431783
1.64617E+18,0.46968042,3.435641973,0.792596485,3.059430241,4.668185767,4.084241334,0.737727679
1.64617E+18,0.479662354,1.54848441,0.002673603,3.404491925,3.740103793,4.207797937,0.90881165
1.64617E+18,0.489644531,-0.575809006,-1.187935819,2.62965,2.942415104,4.441516436,1.048303439
1.64617E+18,0.499627686,-2.081480696,-1.519877032,2.286146359,3.445149236,4.75348644,1.019567729
1.64617E+18,0.509609619,-0.45191024,-1.887058778,3.066593849,3.628940828,4.911683946,0.92239094
1.64617E+18,0.519591553,0.366303502,-2.69816561,2.79467222,3.901854525,4.828919371,1.060559381
1.64617E+18,0.529574463,0.253936767,-3.318023601,2.165604501,3.970340962,4.574940753,1.475209049
1.64617E+18,0.539556396,1.225706162,-3.565032615,1.481041106,4.050345158,4.297927265,1.789367091
1.64617E+18,0.54953833,2.046660142,-4.183234948,1.368954065,4.854102142,4.008236661,2.024985142
1.64617E+18,0.559520508,2.18238028,-4.981894679,1.496178469,5.640975828,3.670184911,2.134755978
1.64617E+18,0.569503662,1.858366937,-5.456165219,1.277113401,5.903751791,3.235911033,2.131384824
1.64617E+18,0.579485596,1.429067173,-5.826628763,0.970362451,6.077288788,2.770352135,2.002356873
1.64617E+18,0.589467529,1.398377436,-5.81024403,1.017273255,6.062115143,2.354042334,1.678045714
1.64617E+18,0.599450684,1.044765658,-4.646442827,1.609662225,5.027124298,2.024955478,1.161879858
1.64617E+18,0.609432373,0.908898221,-1.846504357,1.900415688,2.801295076,1.85511509,0.767982803
1.64617E+18,0.619414551,0.621315789,0.48592123,1.110440199,1.362068349,1.949711571,0.921598953
1.64617E+18,0.629397217,0.33800972,0.772182058,0.854388047,1.200206081,2.248931516,1.141695521
1.64617E+18,0.639379639,-0.523732198,0.61380176,0.824241331,1.153439113,2.633208648,1.351475668
1.64617E+18,0.649361572,-1.118890048,0.855724264,0.432750197,1.473584639,3.081169557,1.518798688
1.64617E+18,0.659343506,-0.605569938,1.026003382,0.515772763,1.298237048,3.590490038,1.733165826
1.64617E+18,0.669326416,0.350241425,1.112573996,0.444320223,1.248162815,4.066531202,1.691445219
1.64617E+18,0.67930835,1.050614968,1.373823425,0.820331464,1.914190775,4.501620485,1.453350378
1.64617E+18,0.689290527,1.928964906,1.637893171,1.129693766,2.771246588,4.966249872,1.284818963
1.64617E+18,0.699273438,2.596957691,2.014543295,0.52707274,3.328720416,5.387539257,1.182649279
1.64617E+18,0.709255371,2.627710556,2.639022224,0.415518491,3.74725989,5.724194194,1.016102937
1.64617E+18,0.719237549,2.834229739,3.208978413,0.793251149,4.354267797,5.981073232,0.781460669
1.64617E+18,0.729220459,3.429823642,3.687988256,0.25821196,5.042977395,6.193663827,0.570742109
1.64617E+18,0.739202393,2.336744327,5.123940512,0.12685294,5.633048206,6.361005282,0.438930444
1.64617E+18,0.749184326,3.048359981,5.81597176,0.068539283,6.566789452,6.447097362,0.366092712
1.64617E+18,0.759166504,3.325235725,5.061071091,-0.188655024,6.058648689,6.46405789,0.37506385
1.64617E+18,0.769149414,2.097066387,5.184970443,0.260419115,5.599055638,6.559177319,0.380759321
1.64617E+18,0.779131348,2.127263373,6.198572316,0.30399113,6.560484648,6.724625726,0.27135776
1.64617E+18,0.789113525,1.45620594,6.817822989,0.418296139,6.984140442,6.850099863,0.417298387
1.64617E+18,0.79909668,0.713839759,6.628727235,0.614040245,6.695269777,6.925366001,0.495278004
1.64617E+18,0.809078369,0.494811808,6.23513416,0.877926159,6.316050274,6.979119536,0.496556455
1.64617E+18,0.819060547,0.58163669,6.382805432,0.956109469,6.480173743,7.00839599,0.464174187
1.64617E+18,0.829043213,1.08265612,6.576430646,0.829660433,6.716391945,7.005258369,0.467825823
1.64617E+18,0.839025391,1.352414141,6.327078869,0.557388968,6.493969009,6.957582697,0.516586421
1.64617E+18,0.849007324,1.665138029,6.526835718,0.082127079,6.736394733,6.922680546,0.556944523
1.64617E+18,0.858990479,1.926864134,6.713841806,-0.591118804,7.009842982,6.878914674,0.586286779
1.64617E+18,0.868972656,2.135914589,6.837055513,-1.142969427,7.25353971,6.816487169,0.602046404
1.64617E+18,0.878954346,2.00106159,7.345601247,-1.765121082,7.815226011,6.750922995,0.586376878
1.64617E+18,0.8889375,1.708952036,7.288900286,-1.951798669,7.736801825,6.631965379,0.466885611
1.64617E+18,0.898919434,1.380836226,6.878114669,-1.760198823,7.232805125,6.541701654,0.303078749
1.64617E+18,0.908901367,1.074932248,6.352520769,-1.471881063,6.60881482,6.494454175,0.21596725
1.64617E+18,0.918883545,0.936803003,6.295720439,-1.035998998,6.448797534,6.467836219,0.216634253
1.64617E+18,0.928866455,0.52687751,6.145593006,-0.941878115,6.23963522,6.430566726,0.246679265
1.64617E+18,0.938848633,-0.147374043,6.086282738,-0.834160083,6.144947496,6.373288204,0.335038314
1.64617E+18,0.948830322,-1.028387062,6.144968152,-0.925128056,6.29873602,6.287226084,0.46713364
1.64617E+18,0.958813477,-1.763160011,6.06294161,-0.952619289,6.385567924,6.202751492,0.52961576
1.64617E+18,0.96879541,-2.487848204,6.017707799,-1.063043657,6.597897973,6.151958006,0.533985852
1.64617E+18,0.978777344,-3.098193979,5.712146643,-1.292985216,6.625649853,6.102185377,0.512879627
1.64617E+18,0.988760498,-3.637638709,5.692308555,-1.034897759,6.834164575,6.108126307,0.519213728
1.64617E+18,0.998742676,-4.094908722,5.302135518,-0.906172011,6.760330332,6.134654632,0.560747556
1.64617E+18,1.008724609,-4.306805214,4.584367771,-0.814876121,6.342635265,6.136491828,0.562820733
1.64617E+18,1.01870752,-4.591704398,3.908665143,-0.746733144,6.076102605,6.105480462,0.559139465
1.64617E+18,1.028689453,-4.67910591,3.108982499,-0.743898213,5.666849994,6.074075024,0.568646555
1.64617E+18,1.038671387,-4.537380395,2.589642399,-0.793747993,5.284326303,6.094758675,0.557102705
1.64617E+18,1.048654541,-4.417948544,2.972283288,-1.180368891,5.453990099,6.191113243,0.487589507
1.64617E+18,1.05863623,-4.765865325,2.977980623,-1.72183899,5.877633061,6.296415262,0.426964932
1.64617E+18,1.068618652,-5.21095361,2.502335287,-1.9484289,6.100171686,6.391657592,0.429147271
1.64617E+18,1.078601318,-5.803245549,2.592189746,-2.0719337,6.68505915,6.543158274,0.549926234
1.64617E+18,1.088583496,-6.102976684,2.605598093,-2.523230776,7.099447822,6.691050122,0.735689348
1.64617E+18,1.09856543,-5.767297453,2.130667628,-2.854704956,6.778702297,6.792399894,0.846443637
1.64617E+18,1.10854834,-5.0209121,1.272079791,-3.092502489,6.032521608,6.922083286,0.92966347
1.64617E+18,1.118530273,-4.663597375,0.502470214,-3.346577788,5.76204822,7.121961841,0.931787794
1.64617E+18,1.128512207,-4.597828141,0.024939795,-3.65507149,5.873686509,7.346926546,0.843709327
1.64617E+18,1.138495605,-4.736401915,-0.090822427,-4.073592086,6.247871981,7.56889999,0.707993635
1.64617E+18,1.148477539,-4.657915823,-0.255999545,-4.536459773,6.507010285,7.783831383,0.590892326
1.64617E+18,1.158459473,-4.498651143,-0.593887099,-5.104812033,6.830056361,8.003663176,0.471928122
1.64617E+18,1.168442383,-4.684140982,-0.931591699,-5.931433538,7.615178503,8.19931593,0.328629491
1.64617E+18,1.178424316,-4.737880755,-0.924689664,-6.583917203,8.163977631,8.334807687,0.33901014
1.64617E+18,1.18840625,-4.52770305,-0.776319888,-6.687085901,8.112945539,8.447817752,0.437330902
1.64617E+18,1.198389648,-4.160097234,-0.893267521,-6.863668795,8.075536216,8.569549909,0.493049031
1.64617E+18,1.208371338,-3.56976169,-0.811720872,-7.148412788,8.031307159,8.707684251,0.527585729
1.64617E+18,1.218353516,-3.1721208,-0.661546093,-7.327159582,8.011695273,8.857057203,0.526395598
1.64617E+18,1.228336426,-2.896111902,-0.567923222,-7.536143693,8.093420952,8.987043035,0.457590457
1.64617E+18,1.238318359,-2.519002929,-0.325032749,-8.003855897,8.397185914,9.09486878,0.348303911
1.64617E+18,1.248300537,-2.039939309,-0.24168928,-8.459490126,8.705328212,9.16165044,0.261283151
1.64617E+18,1.258283447,-1.873817019,-0.503457471,-8.569678932,8.786583901,9.188432099,0.224236634
1.64617E+18,1.268265625,-1.788811462,-0.749626527,-8.75790141,8.970096069,9.21107926,0.191563754
1.64617E+18,1.278247314,-1.525025793,-0.811183112,-9.132150318,9.294078283,9.22063711,0.181417424
1.64617E+18,1.288230469,-1.31195602,-1.033527055,-9.179568487,9.330267112,9.205076993,0.181123798
1.64617E+18,1.298212402,-1.226651919,-1.221461949,-9.297092458,9.456879633,9.170941766,0.186402703
1.64617E+18,1.308194336,-1.137921496,-1.078158809,-9.395160034,9.525036683,9.080224482,0.238607596
1.64617E+18,1.318177246,-1.378384741,-0.756182525,-9.177868697,9.311553594,8.913704548,0.397936405
1.64617E+18,1.328159668,-2.015525291,-0.906744258,-8.901413224,9.171678404,8.700849347,0.629881685
1.64617E+18,1.338141602,-2.367446924,-1.060345504,-8.685915786,9.065002513,8.438712052,0.87655626
1.64617E+18,1.348124512,-2.69175019,-1.465610897,-8.433492346,8.973144796,8.135789419,1.102168254
1.64617E+18,1.358106445,-3.210320475,-2.099546514,-8.156035587,9.013055509,7.795806813,1.298343516
1.64617E+18,1.368088379,-3.503476907,-2.795523868,-7.880174573,9.065674571,7.423796945,1.423222017
1.64617E+18,1.378071533,-3.439567622,-3.479656471,-7.718363132,9.138477117,7.022718821,1.468431635
1.64617E+18,1.388053223,-3.32249724,-3.857460441,-7.408211725,8.988914836,6.589027923,1.419123459
1.64617E+18,1.3980354,-2.895867572,-3.96969975,-6.996636419,8.549706795,6.13696611,1.297442053
1.64617E+18,1.408018555,-2.323703644,-3.773096981,-6.491624119,7.859837349,5.68657632,1.155710606
1.64617E+18,1.418000488,-1.820152065,-3.399552422,-6.060165131,7.183001575,5.249266118,1.07519788
1.64617E+18,1.427982666,-1.537951911,-2.944433158,-5.645486598,6.550305461,4.848138632,1.026075503
1.64617E+18,1.437965332,-1.382604843,-2.452905778,-5.338749969,6.035776183,4.509158714,0.96591752
1.64617E+18,1.44794751,-1.3897043,-1.854925272,-5.068516147,5.573318736,4.247216972,0.866457306
1.64617E+18,1.457930664,-1.554871481,-1.353985336,-4.874883626,5.292956828,4.065990597,0.752121016
1.64617E+18,1.467912598,-1.681511656,-1.097335803,-4.638999818,5.054893334,3.92403745,0.631426045
1.64617E+18,1.477894531,-1.751139903,-0.945559434,-4.369723442,4.801568136,3.775228717,0.511304938
1.64617E+18,1.487877441,-1.692204899,-0.738886522,-4.068926724,4.4682967,3.618075209,0.401400155
1.64617E+18,1.497859375,-1.710314556,-0.545194088,-3.625762978,4.045808899,3.473510122,0.321541563
1.64617E+18,1.507841553,-1.622351026,-0.253197347,-3.07590499,3.486735329,3.359537506,0.299739909
1.64617E+18,1.517824219,-1.571997973,0.238612357,-2.744400999,3.171726711,3.294997301,0.333037849
1.64617E+18,1.527806152,-1.802931465,0.787567843,-2.473454061,3.160506283,3.256663529,0.365500158
1.64617E+18,1.537788574,-2.037535755,1.223925709,-2.453968439,3.416358762,3.20509511,0.409196085
1.64617E+18,1.547771484,-2.253403781,1.539776788,-2.587816353,3.761054989,3.14283938,0.419545794
1.64617E+18,1.557753418,-2.230803242,1.753660362,-2.636591782,3.873425357,3.071205993,0.365555737
1.64617E+18,1.567735352,-1.896719756,1.7233605,-2.480844171,3.566806001,2.963985592,0.25508501
1.64617E+18,1.577718262,-1.561567764,1.835914866,-2.150357248,3.230033061,2.857707529,0.196444475
1.64617E+18,1.587700195,-1.619813032,1.759841096,-1.848121437,3.022645826,2.81078158,0.153184125
1.64617E+18,1.597682129,-1.672968284,1.710537844,-1.649410298,2.906082746,2.805769196,0.146859123
1.64617E+18,1.607665283,-1.780855827,1.679316192,-1.442783564,2.841333271,2.818308665,0.15968251
1.64617E+18,1.617647461,-1.793523585,1.726086711,-1.256587038,2.788388992,2.876661179,0.242550478
1.64617E+18,1.627630127,-1.556952379,1.865899086,-1.043745083,2.644822094,2.978970315,0.367386807
1.64617E+18,1.637612305,-1.481067409,2.125610345,-1.045727781,2.79380146,3.140635717,0.512009739
1.64617E+18,1.647594482,-1.19582891,2.573340668,-1.103738071,3.044721121,3.344057716,0.702474998
1.64617E+18,1.657577393,-0.651539662,2.593788413,-0.833425923,2.801221347,3.57088551,0.905943175
1.64617E+18,1.66755957,0.219106861,2.471757778,-0.335482831,2.504025371,3.867763154,1.075624419
1.64617E+18,1.67754126,0.785282362,2.643900059,0.122453244,2.760773571,4.228616136,1.159605136
1.64617E+18,1.687524414,0.777084443,2.820480907,0.526226353,2.972521985,4.605904052,1.23215303
1.64617E+18,1.697506348,0.435389313,2.894780654,0.787741446,3.03147744,4.998808035,1.274377617
1.64617E+18,1.707489258,0.256832507,3.293781725,0.902604089,3.42485841,5.406089607,1.230620909
1.64617E+18,1.717471191,0.089211521,3.632855275,1.149689675,3.811480354,5.790770299,1.149764394
1.64617E+18,1.727453369,-0.100079463,4.004112015,1.455077228,4.261476113,6.148967348,1.028957073
1.64617E+18,1.737436279,-0.126299983,4.561225673,1.577675434,4.828021448,6.476713221,0.887847932
1.64617E+18,1.747418457,-0.195337863,4.99373417,1.803447014,5.312999056,6.768049178,0.769101631
1.64617E+18,1.757400146,-0.117509358,5.313333788,2.246675349,5.769997792,7.02709255,0.664534691
1.64617E+18,1.767383301,0.033201501,5.592430715,2.467173957,6.112555192,7.260398744,0.587295828
1.64617E+18,1.777365234,0.158987689,5.937036764,2.723037893,6.53365273,7.460097348,0.495365191
1.64617E+18,1.787347168,0.23910562,6.161915779,3.099222153,6.901561818,7.623420257,0.42759416
1.64617E+18,1.797330322,0.400699692,6.241745687,3.369129227,7.104293154,7.76177384,0.394168475
1.64617E+18,1.807312256,0.566164907,6.328705009,3.536109011,7.271665334,7.891081773,0.36853592
1.64617E+18,1.817295166,0.64351593,6.417727693,3.614107612,7.39345084,8.008118812,0.337799362
1.64617E+18,1.827277344,0.840816618,6.542615471,3.650034081,7.538934843,8.125283555,0.305976751
1.64617E+18,1.837259277,1.061366079,6.693136287,3.7422465,7.741381025,8.227851254,0.260810451
1.64617E+18,1.847242188,0.997310079,6.825388456,3.857939164,7.903432771,8.276545964,0.204903907
1.64617E+18,1.857224609,0.858547578,7.059349772,3.884334419,8.103059733,8.259673483,0.239036456
1.64617E+18,1.867206299,0.629596784,6.957756945,4.117995291,8.109541235,8.179266424,0.374849017
1.64617E+18,1.877189453,0.531741974,6.972914767,4.218254239,8.166881822,8.06660953,0.520044243
1.64617E+18,1.887171143,0.628848596,7.313867554,3.841189105,8.28509764,7.914720841,0.669041947
1.64617E+18,1.897154297,0.891016454,7.679320576,3.278717719,8.397372489,7.718508257,0.805460334
1.64617E+18,1.90713623,1.147282541,7.921261201,2.68427474,8.442035721,7.484388682,0.907856441
1.64617E+18,1.917118164,1.339825293,8.144794062,2.286505256,8.565098272,7.224688175,0.966333097
1.64617E+18,1.927101318,1.402114869,8.094917978,2.420527357,8.564611834,6.940434496,0.948139251
1.64617E+18,1.937083252,1.195684607,7.576231373,2.979335544,8.228328128,6.659778904,0.834390309
1.64617E+18,1.94706543,0.617957784,6.743920133,3.736760178,7.734707959,6.421174202,0.67828503
1.64617E+18,1.95704834,0.07426694,5.850442184,4.36372011,7.298989145,6.233940539,0.532637877
1.64617E+18,1.967030273,-0.319620807,5.160864176,4.69310404,6.982972292,6.082139139,0.409566057
1.64617E+18,1.977013428,-0.62785257,4.618743796,4.740131165,6.647994928,5.937592745,0.308808885
1.64617E+18,1.986995605,-0.641803866,4.346699125,4.546896411,6.322971806,5.786175587,0.294233188
1.64617E+18,1.996977295,-0.394907592,4.381386408,4.162304389,6.056176738,5.620344249,0.395016699
1.64617E+18,2.006960449,0.012425766,4.561859295,3.654267188,5.845030651,5.432467339,0.556733393
1.64617E+18,2.016942139,0.362614584,4.684259932,3.267098009,5.722561476,5.230738897,0.713967676
1.64617E+18,2.026925293,0.530874544,4.909736036,2.961059298,5.758055913,5.013227714,0.849468099
1.64617E+18,2.036907227,0.501534979,5.202705421,2.610089559,5.842281108,4.768033815,0.947323505
1.64617E+18,2.04688916,0.317868922,5.329406971,2.421523967,5.862371332,4.489533217,0.998562989
1.64617E+18,2.056872314,0.10324527,5.197534741,2.52876386,5.780975145,4.1868783,0.995256561
1.64617E+18,2.066854248,-0.1100578,4.913438398,2.551471951,5.53750835,3.857687354,0.957241472
1.64617E+18,2.076837158,-0.197250346,4.430747235,2.585674665,5.133823354,3.521335683,0.896929238
1.64617E+18,2.086819336,-0.160260705,3.804999017,2.693573314,4.664658424,3.193536979,0.845226143
1.64617E+18,2.09680127,-0.157605806,3.170335671,2.715670579,4.177407635,2.869462949,0.840308583
1.64617E+18,2.106784424,-0.16510756,2.707731018,2.700476517,3.827746229,2.537781377,0.910269301
1.64617E+18,2.116766602,-0.287926715,2.300116432,2.685323372,3.547449648,2.193757138,1.003098171
1.64617E+18,2.126749268,-0.527360252,2.034097013,2.552400756,3.306116924,1.888157419,1.009628908
1.64617E+18,2.136731445,-0.683767788,1.887127167,2.30611012,3.05727513,1.660413846,0.916674654
1.64617E+18,2.146713135,-0.792152248,1.765018206,2.073425399,2.835822163,1.524519806,0.791736626
1.64617E+18,2.156696289,-0.855377716,1.439973767,1.841263826,2.489065681,1.469880548,0.714435964
1.64617E+18,2.166678223,-0.856973388,1.083130752,1.678887737,2.173991639,1.497829208,0.757904092
1.64617E+18,2.1766604,-0.799434149,0.69335402,1.524563437,1.855836315,1.617481459,0.930095306
1.64617E+18,2.186643311,-0.639701341,0.362010188,1.219538287,1.423918121,1.830931505,1.173404997
1.64617E+18,2.196625244,-0.427193074,0.262895734,0.699292763,0.860591923,2.15584397,1.436142343
1.64617E+18,2.206608154,-0.294594283,0.239431856,0.077754855,0.387503836,2.610479858,1.656808021
1.64617E+18,2.216590332,-0.226222831,0.120956868,-0.419187535,0.491452462,3.181755358,1.772667655
1.64617E+18,2.226573486,-0.175202253,0.016062077,-1.013524132,1.028681188,3.814632621,1.828083756
1.64617E+18,2.23655542,-0.247599892,0.068505381,-1.678791875,1.69833473,4.470800153,1.887005812
1.64617E+18,2.246537598,-0.461522081,0.165529585,-2.236310607,2.289429581,5.127318557,1.94925358
1.64617E+18,2.256520264,-0.757578947,0.164908823,-2.657773686,2.768552284,5.779132068,1.980855483
1.64617E+18,2.266502441,-1.011149219,0.256363118,-3.205030552,3.370514149,6.406476744,1.920546309
1.64617E+18,2.276485352,-1.126108308,0.418297893,-3.805219382,3.990336777,6.98401943,1.784293175
1.64617E+18,2.286467285,-1.225023441,0.405053211,-4.491389336,4.673042767,7.507761781,1.586385767
1.64617E+18,2.296449463,-1.412916833,0.389934553,-5.20449172,5.406950804,7.975766305,1.354456078
1.64617E+18,2.306432373,-1.599739381,0.293142988,-5.879460774,6.100258838,8.394329425,1.12289099
1.64617E+18,2.316414307,-1.646028839,0.334444721,-6.610159313,6.820225095,8.770207455,0.898811076
1.64617E+18,2.326397461,-1.565776906,0.308650354,-7.420686591,7.590356503,9.088473973,0.691574541
1.64617E+18,2.33637915,-1.286316406,0.153880064,-8.161338954,8.263518772,9.343537087,0.547321716
1.64617E+18,2.346361328,-0.865505654,-0.073348729,-8.764628672,8.807564694,9.556753098,0.498152861
1.64617E+18,2.356344482,-0.31313656,-0.38673488,-9.028295976,9.041999037,9.688304356,0.454746655
1.64617E+18,2.366326416,0.100434889,-0.75788816,-9.113931939,9.145941014,9.837045186,0.462217537
1.64617E+18,2.376309326,0.571283674,-1.075751748,-9.147018801,9.227760281,10.00334796,0.482378984
1.64617E+18,2.38629126,0.968166987,-1.416025905,-9.194442816,9.353088012,10.17303566,0.478141547
1.64617E+18,2.396273438,1.512092078,-1.636899776,-9.330153601,9.592582006,10.32884639,0.437720131
1.64617E+18,2.406256348,1.76600371,-1.699866228,-9.549467967,9.85903914,10.45699441,0.388193899
1.64617E+18,2.416238281,1.766550238,-1.920795044,-9.656482819,10.00289027,10.54507737,0.33938567
1.64617E+18,2.426221436,1.733065317,-2.12935713,-9.762271929,10.14098764,10.59558935,0.288741903
1.64617E+18,2.436203369,1.590617333,-2.139922948,-10.04792544,10.39567888,10.61540617,0.262466616
1.64617E+18,2.446186279,1.196099617,-2.79408536,-9.656040921,10.12307728,10.59120772,0.291192243
1.64617E+18,2.456168457,1.163601808,-2.526982822,-10.15523547,10.52940734,10.55448601,0.36236775
1.64617E+18,2.466150146,0.997459132,-2.088393836,-10.55829021,10.80896876,10.41239009,0.565825749
1.64617E+18,2.476133545,0.622725071,-1.67830906,-10.77697504,10.92463724,10.16589818,0.819436563
1.64617E+18,2.486115479,0.304867913,-1.248127253,-10.83528578,10.91119535,9.823984493,1.097622191
1.64617E+18,2.496098389,-0.046636663,-1.0620073,-10.82197738,10.87406221,9.407354485,1.364210473
1.64617E+18,2.506080322,-0.391166798,-1.553725234,-10.61968488,10.73986874,8.935982924,1.574186117
1.64617E+18,2.516062256,-0.871288329,-2.223591411,-10.23302365,10.50801004,8.431182162,1.717635103
1.64617E+18,2.526045166,-1.404524268,-2.900404631,-9.8241085,10.33915583,7.892341574,1.823528078
1.64617E+18,2.536028076,-1.596932507,-3.304459479,-9.467199434,10.15369445,7.272475984,1.936482086
1.64617E+18,2.546010986,-1.616675319,-3.230901491,-9.062253775,9.755860137,6.587307456,2.006695205
1.64617E+18,2.555993164,-1.560120488,-2.909433156,-8.489113695,9.108448197,5.94762103,1.912028734
1.64617E+18,2.56597583,-1.492750248,-2.338208555,-7.869411771,8.344049627,5.440051363,1.663074441
1.64617E+18,2.575958008,-1.424524853,-1.437369137,-7.227533086,7.505500357,5.089713297,1.354874596
1.64617E+18,2.585939697,-1.509743469,-0.545330866,-6.551099221,6.744895262,4.861706648,1.096329072
1.64617E+18,2.595923096,-1.554683265,0.037626843,-5.960823298,6.160346599,4.704292592,0.912178372
1.64617E+18,2.605905029,-1.33643682,0.397953024,-5.51841037,5.691861119,4.577164697,0.779302724
1.64617E+18,2.615887939,-0.907534531,0.559849221,-5.007324304,5.11960416,4.440751437,0.686054799
1.64617E+18,2.625869873,-0.835048556,0.486487632,-4.026135046,4.140499935,4.297092663,0.679238896
1.64617E+18,2.635851807,-0.99537765,0.653580228,-3.079824794,3.302009167,4.19963728,0.759845413
1.64617E+18,2.645834717,-1.502823314,1.487724529,-2.609799052,3.358995874,4.140078681,0.846293706
1.64617E+18,2.655817139,-2.093933934,2.133752735,-2.706589155,4.032751531,4.040191137,0.980842299
1.64617E+18,2.665799805,-2.511826169,2.683425429,-3.14992592,4.840668966,3.862471218,1.117566676
1.64617E+18,2.675781982,-2.847245872,3.110400549,-3.08605872,5.225433863,3.600277624,1.163920202
1.64617E+18,2.685764893,-3.286258052,3.115897978,-2.49567466,5.170754703,3.314844557,1.077131328
1.64617E+18,2.695746826,-3.575651332,2.859605003,-1.71474757,4.889067646,3.064163693,0.891794618
1.64617E+18,2.705729004,-3.4739001,2.440036944,-0.841113555,4.327728527,2.872692695,0.653005028
1.64617E+18,2.715712158,-2.974717237,2.163558675,-0.186228674,3.683016413,2.763988651,0.465218368
1.64617E+18,2.725694092,-2.335764669,2.123151846,0.244222013,3.165946105,2.738977022,0.41962555
1.64617E+18,2.735677002,-1.651711561,2.058572114,0.59904609,2.706423183,2.783382991,0.481406858
1.64617E+18,2.745658936,-0.930543651,1.970483496,0.906339768,2.360120435,2.902344052,0.583787401
1.64617E+18,2.755641846,-0.251534382,1.895643067,1.196153905,2.255552337,3.098112746,0.688066382
1.64617E+18,2.765624023,0.225884977,1.706951802,1.399309748,2.218733028,3.33413477,0.759649446
1.64617E+18,2.775605713,0.741706694,1.662322387,1.519436011,2.371103188,3.587103028,0.767255671
1.64617E+18,2.785589111,1.153217849,1.637765453,1.756252132,2.663946065,3.832430082,0.730557472
1.64617E+18,2.795571045,1.271629709,1.83654615,1.96388892,2.974357673,4.058954547,0.682754557
1.64617E+18,2.805553955,1.330076053,2.034412655,2.143390332,3.240688086,4.27086749,0.640809965
1.64617E+18,2.815535889,1.194086889,2.34749953,2.201864148,3.432900125,4.484929259,0.618057708
1.64617E+18,2.825519287,0.877506034,2.652830385,2.28574187,3.610005787,4.72565887,0.630113411
1.64617E+18,2.835500977,0.587488338,2.976990442,2.443658057,3.896033796,5.004034966,0.687996999
1.64617E+18,2.845483154,0.350854004,3.356534242,2.693332491,4.317807378,5.313185532,0.805250361
1.64617E+18,2.85546582,0.112578916,3.618677404,2.863189876,4.615772571,5.628601963,0.957025924
1.64617E+18,2.865447998,0.180355252,3.85724446,2.763437708,4.74841561,5.949735585,1.092489225
1.64617E+18,2.875430908,0.447012604,4.033778546,2.608331318,4.824373731,6.277421362,1.171590151
1.64617E+18,2.885412842,0.709375838,4.177810293,2.51785785,4.929190712,6.598734945,1.169631296
1.64617E+18,2.895395996,0.96465233,4.377279265,2.419190555,5.093487098,6.889232873,1.075890563
1.64617E+18,2.90537793,1.055136903,4.673152555,2.45087398,5.381305785,7.131024923,0.902949035
1.64617E+18,2.915360107,0.969711294,5.127277548,2.622704126,5.840196228,7.309423861,0.690982284
1.64617E+18,2.925343018,0.663273355,5.715747298,2.787571448,6.393766754,7.427065414,0.506288348
1.64617E+18,2.935324951,0.360166095,6.316545785,2.966013706,6.98753945,7.503688399,0.388353926
1.64617E+18,2.945307861,0.072871175,6.754156281,3.194749396,7.471971693,7.575976761,0.351035772
1.64617E+18,2.955290283,-0.218488949,7.081878999,3.326091465,7.82710879,7.657226661,0.407110829
1.64617E+18,2.965272949,-0.374332494,7.305857266,3.299899624,8.025273374,7.747883312,0.520104578
1.64617E+18,2.975255127,-0.416060964,7.357925307,3.207707662,8.037509564,7.852921291,0.65427712
1.64617E+18,2.985236816,-0.407867063,7.149567219,3.176720403,7.834169993,7.949252168,0.739701555
1.64617E+18,2.995219971,-0.338969468,6.792213332,3.189385823,7.511407603,8.033834323,0.769465959
1.64617E+18,3.005201904,-0.287768346,6.332562853,3.340253261,7.165295162,8.112042096,0.751937699
1.64617E+18,3.015185059,-0.146304039,6.053269527,3.545329844,7.016611756,8.196634112,0.685301482
1.64617E+18,3.025166992,0.16890403,6.074043435,3.787217861,7.159996602,8.29084318,0.571995319
1.64617E+18,3.035150146,0.601082491,6.519248039,4.072926316,7.710423071,8.38018071,0.443796477
1.64617E+18,3.045131836,1.044347213,7.05951753,4.207731676,8.284470696,8.429836459,0.390681353
1.64617E+18,3.05511499,1.63455935,7.522936421,4.124406327,8.733675298,8.445540137,0.387667145
1.64617E+18,3.06509668,2.07629774,7.753148614,4.236172173,9.075653167,8.433719002,0.38043567
1.64617E+18,3.075078857,1.994784993,7.5134999,4.536836205,9.000818333,8.381009885,0.319474556
1.64617E+18,3.085062012,1.556947118,6.977012265,4.923359488,8.679991539,8.314389963,0.243771896
1.64617E+18,3.095043945,0.91881763,6.514057485,5.050220612,8.293485333,8.245928246,0.227042671
1.64617E+18,3.105026855,0.335751712,6.299882234,4.937441205,8.011215328,8.158761474,0.334125715
1.64617E+18,3.115009033,0.035939365,6.424366108,4.697570957,7.958702433,8.023006688,0.563528565
1.64617E+18,3.124991699,-0.125896005,6.753896753,4.384726658,8.053371904,7.810799112,0.866108908
1.64617E+18,3.134974121,-0.091217527,7.153488776,4.021667253,8.206980553,7.509911832,1.191204811
1.64617E+18,3.144956055,0.057414663,7.611936308,3.648859776,8.441507476,7.113005935,1.511104282
1.64617E+18,3.154938965,0.198306065,7.962691528,3.28366219,8.615463948,6.616778013,1.78357405
1.64617E+18,3.164921143,0.186058578,7.986313811,3.043367579,8.548562002,6.033370459,1.977958243
1.64617E+18,3.174903809,0.208427646,7.853669428,2.782500721,8.334619117,5.389481543,2.098725165
1.64617E+18,3.184885986,0.154695508,7.59044227,2.507442255,7.995374363,4.701735381,2.147227572
1.64617E+18,3.194869141,0.121487578,7.077850475,2.229943995,7.42181762,3.997893595,2.105403548
1.64617E+18,3.204851074,0.075993691,6.375341672,1.902770142,6.653667462,3.334936432,1.961760429
1.64617E+18,3.214833008,0.023934454,5.597207428,1.654360029,5.836626676,2.767878813,1.725882278
1.64617E+18,3.224816162,-0.114006337,4.752647532,1.687102608,5.044499104,2.324179687,1.423828774
1.64617E+18,3.234797852,-0.214372216,3.873861541,1.705057366,4.237921579,2.012553278,1.098107829
1.64617E+18,3.244781006,-0.250128607,3.051763652,1.652030125,3.479228253,1.843301951,0.842829658
1.64617E+18,3.254762695,-0.249545254,2.339630697,1.483231894,2.781388409,1.79663114,0.759779769
1.64617E+18,3.264746094,-0.274612475,1.755328003,1.13759884,2.109672849,1.854773064,0.849824108
1.64617E+18,3.274728027,-0.250012872,1.267672496,0.67365271,1.457157495,2.016986896,1.020645629
1.64617E+18,3.284710938,-0.182118316,0.921745427,0.181615043,0.956956497,2.29064472,1.187144284
1.64617E+18,3.294692871,-0.132867671,0.675739453,-0.391632589,0.792245991,2.658865007,1.283512777
1.64617E+18,3.304674805,-0.105215109,0.4689397,-0.857609348,0.983091275,3.081302447,1.294768724
1.64617E+18,3.314657959,-0.18030396,0.359070043,-1.340723119,1.399635415,3.527695241,1.263555339
1.64617E+18,3.324640137,-0.295578691,0.279719443,-1.884802524,1.928235018,3.989616603,1.245360032
1.64617E+18,3.334622803,-0.391941801,0.312686478,-2.495538467,2.545408307,4.451956521,1.252448569
1.64617E+18,3.34460498,-0.660378802,0.348861368,-2.918471033,3.012520139,4.898324379,1.288325315
1.64617E+18,3.354587891,-1.063415998,0.303497209,-3.175769386,3.362807656,5.33540947,1.315545009
1.64617E+18,3.364569824,-1.368674371,0.266724937,-3.461502975,3.731811165,5.764085433,1.301273391
1.64617E+18,3.374552979,-1.59705175,0.165616094,-3.87419881,4.193735733,6.185164368,1.256019067
1.64617E+18,3.384535156,-1.69216749,0.065835869,-4.319031658,4.639159368,6.602636451,1.217948536
1.64617E+18,3.394516846,-1.828964317,-0.073612933,-4.670754846,5.016620393,7.030653327,1.204733165
1.64617E+18,3.4045,-1.908730512,-0.24428105,-5.095791692,5.447019218,7.478899622,1.205876886
1.64617E+18,3.414481934,-1.886217067,-0.401594595,-5.701530557,6.018849037,7.944033832,1.229265388
1.64617E+18,3.424464844,-2.011644943,-0.667906275,-6.199281926,6.55163419,8.404308878,1.282786972
1.64617E+18,3.434447021,-2.100254954,-0.930966845,-6.621897682,7.009086891,8.851317278,1.336999889
1.64617E+18,3.444429932,-2.089943988,-1.150151447,-6.987378176,7.383371046,9.28841497,1.377166996
1.64617E+18,3.454411865,-2.162999872,-1.479738791,-7.186632336,7.649567287,9.698776923,1.359649306
1.64617E+18,3.464394043,-2.035404589,-1.815522067,-7.459618672,7.942600515,10.07611033,1.25841179
1.64617E+18,3.474376953,-1.685632535,-2.19334591,-7.898034054,8.368456563,10.41823982,1.084988604
1.64617E+18,3.484358887,-1.359251878,-2.450744216,-8.467626671,8.919328131,10.70670709,0.86228174
1.64617E+18,3.494342041,-1.023841455,-2.67678,-9.056444212,9.499083337,10.92124506,0.625177863
1.64617E+18,3.504323975,-0.641150297,-3.031964726,-9.611088265,10.09836132,11.03596261,0.427778666
1.64617E+18,3.514306885,-0.266395851,-3.368079426,-10.06992801,10.6215995,11.04509878,0.408183346
1.64617E+18,3.524288818,0.112366223,-3.651056994,-10.39881861,11.02171818,10.96028464,0.550628771
1.64617E+18,3.53427124,0.30304647,-3.836941969,-10.70943003,11.38006381,10.79626378,0.724682595
1.64617E+18,3.54425293,0.411335068,-4.099021711,-10.72286234,11.48699057,10.56365258,0.8605462
1.64617E+18,3.554235107,0.379590853,-4.318327309,-10.56837905,11.42290137,10.28409948,0.963143381
1.64617E+18,3.564218018,0.311317564,-4.359814335,-10.48967201,11.3638954,9.959855162,1.065530144
1.64617E+18,3.574200195,0.175869777,-3.864048587,-10.56745551,11.25312924,9.579896466,1.169494503
1.64617E+18,3.584183105,-0.118550392,-3.290658332,-10.56339308,11.06470785,9.154332691,1.2544017
1.64617E+18,3.594165039,-0.348629898,-2.84186944,-10.25402669,10.64625887,8.718631887,1.271745396
1.64617E+18,3.604147949,-0.605425671,-2.410849428,-9.881888489,10.18972302,8.324489789,1.223090512
1.64617E+18,3.614130127,-0.970574048,-2.324669274,-9.443218839,9.773458101,7.973506789,1.138121999
1.64617E+18,3.624112305,-1.364456461,-2.690573547,-8.883231087,9.381509579,7.636378514,1.050995712
1.64617E+18,3.634095215,-1.658761041,-3.019237347,-8.372977964,9.053951752,7.262726882,1.028100056
1.64617E+18,3.644077148,-1.781083791,-3.200208246,-7.882123953,8.691459619,6.863182646,1.030709925
1.64617E+18,3.654060059,-1.650485234,-3.0870489,-7.393640764,8.180458188,6.501765379,0.957299945
1.64617E+18,3.664042236,-1.395585759,-2.626862415,-6.954904478,7.564308432,6.255753087,0.796971444
1.64617E+18,3.674024902,-1.118798278,-2.091321122,-6.58327832,6.997491484,6.161054235,0.684132266
1.64617E+18,3.684007324,-0.704091761,-1.537136503,-6.491124937,6.707699813,6.194996282,0.731564287
1.64617E+18,3.693989014,-0.147386025,-1.073142442,-6.616758565,6.704837899,6.28344276,0.834436915
1.64617E+18,3.703972168,0.287870016,-0.662051704,-6.640767217,6.679893026,6.325141073,0.864335954
1.64617E+18,3.713954102,0.443317768,-0.18993805,-6.383983244,6.402175346,6.301569915,0.857527381
1.64617E+18,3.723937012,-0.017362711,0.128135966,-5.643512083,5.644993262,6.241602819,0.869282262
1.64617E+18,3.733918945,-1.224704292,0.487246341,-4.88376982,5.058509391,6.181196149,0.927669519
1.64617E+18,3.743902344,-2.648122645,0.948131914,-4.22697706,5.077286946,6.109963843,1.032560044
1.64617E+18,3.753884033,-3.911643867,1.684858628,-3.818707809,5.720335276,6.001263716,1.18195851
1.64617E+18,3.763867188,-5.002202723,2.266785241,-3.691690033,6.617319904,5.803776345,1.363450371
1.64617E+18,3.773849121,-5.888928275,2.552473821,-3.554669919,7.336911957,5.493366796,1.490342353
1.64617E+18,3.783831055,-6.2547022,2.668626504,-3.376106665,7.592164595,5.098479063,1.472603302
1.64617E+18,3.793813965,-5.918008239,2.535176065,-3.044732438,7.121821032,4.684454966,1.283125973
1.64617E+18,3.803796143,-5.334136337,2.42499252,-2.682140066,6.444181447,4.341240253,1.016611786
1.64617E+18,3.813779053,-4.735158052,2.351105446,-2.391576572,5.802504382,4.100539358,0.736594975
1.64617E+18,3.82376123,-3.960400007,2.228845094,-2.181380747,5.040926564,3.95111009,0.484651769
1.64617E+18,3.833743896,-3.157791831,2.229152552,-1.9870997,4.346186324,3.906961269,0.395222946
1.64617E+18,3.843726074,-2.649465877,2.361988074,-1.823107992,3.990285684,3.954999908,0.468156088
1.64617E+18,3.853708008,-2.175562416,2.579023975,-1.626052219,3.745461561,4.060668531,0.571944091
1.64617E+18,3.863691162,-1.641352664,2.770723189,-1.404208042,3.513224414,4.214177649,0.665155019
1.64617E+18,3.87367334,-1.293517716,2.998733488,-0.901769392,3.388034629,4.416496886,0.726082787
1.64617E+18,3.883656006,-1.111800382,3.263779678,-0.165586284,3.451923622,4.658674545,0.746260824
1.64617E+18,3.893638184,-1.137764844,3.484761685,0.419071215,3.689673905,4.931986645,0.75469298
1.64617E+18,3.903621094,-1.019997639,3.817568576,0.827367354,4.037172495,5.223580603,0.781218949
1.64617E+18,3.913603027,-0.837035346,4.037452851,1.248612991,4.308211705,5.519966884,0.835246263
1.64617E+18,3.923585205,-0.744076492,4.215400311,1.682730968,4.599438349,5.823834405,0.890072732
1.64617E+18,3.933568359,-0.639227366,4.260268796,2.176534476,4.826572714,6.118609893,0.923265331
1.64617E+18,3.943550049,-0.47594114,4.270710111,2.646968214,5.046971918,6.404802625,0.92197185
1.64617E+18,3.953533203,-0.307552111,4.397658328,2.906931402,5.280552741,6.683422279,0.889975085
1.64617E+18,3.963514893,-0.060153111,4.644736315,3.012427082,5.53641678,6.947348623,0.82368758
1.64617E+18,3.973498291,0.307846637,4.930224697,3.058107468,5.809811219,7.197936175,0.73245096
1.64617E+18,3.983480225,0.711014765,5.324790417,3.065263769,6.18504462,7.420111716,0.60326389
1.64617E+18,3.993462158,1.039109239,5.773086558,3.037408963,6.605613493,7.592644762,0.453493564
1.64617E+18,4.003445068,1.313433546,6.070444533,3.230958189,7.001035304,7.714328627,0.31417753
1.64617E+18,4.013427246,1.427972948,6.231599556,3.620056291,7.346886914,7.801912725,0.206881569
1.64617E+18,4.023409912,1.409758077,6.237216227,4.008720678,7.547193225,7.871099692,0.15138626
1.64617E+18,4.03339209,1.343509535,6.300201968,4.197078765,7.68850004,7.965419714,0.204652068
1.64617E+18,4.043375244,1.171787525,6.48286915,4.237670303,7.833168453,8.118744188,0.410537318
1.64617E+18,4.053357178,0.86214173,6.712293992,4.114038078,7.919816179,8.329378206,0.668982188
1.64617E+18,4.063339355,0.593107347,7.016971935,3.884429697,8.042292306,8.579295839,0.897191748
1.64617E+18,4.073322021,0.399110377,7.147863337,3.640717386,8.031566626,8.816887361,1.028506511
1.64617E+18,4.083304199,0.166835407,7.090856671,3.502278053,7.910375082,9.078800431,1.124206484
1.64617E+18,4.093287354,-0.037076223,7.006375138,3.478518407,7.822452143,9.422563792,1.234534651
1.64617E+18,4.103269287,-0.124537065,7.055132447,3.500682308,7.876876281,9.84787532,1.338279867
1.64617E+18,4.113252197,-0.089990661,7.214000236,3.545660683,8.038756583,10.29342626,1.349545408
1.64617E+18,4.123234131,0.283413622,7.80204387,3.336850175,8.490393449,10.6819226,1.19489566
1.64617E+18,4.133216064,0.761995595,8.676571034,3.029365357,9.221744774,10.95709121,0.950344913
1.64617E+18,4.143199219,1.051940664,9.47271206,2.820457234,9.939508637,11.06143924,0.799369815
1.64617E+18,4.153180908,1.16225222,9.841312148,3.21763109,10.41899251,10.9867839,0.92556421
1.64617E+18,4.163164307,1.003637529,9.346766882,4.491069895,10.41820753,10.78049265,1.214057072
1.64617E+18,4.17314624,0.953266355,8.475394382,6.379367275,10.65069732,10.50111115,1.542352847
1.64617E+18,4.18312915,1.10520113,7.916749276,8.054868876,11.34800869,10.11447772,1.899618643
1.64617E+18,4.193111084,1.232326457,7.878577074,9.06800547,12.07556742,9.591579119,2.186168854
1.64617E+18,4.203093018,1.283083269,8.188454924,9.131847535,12.33238566,8.946972965,2.305775318
1.64617E+18,4.213075928,1.174987198,8.530157653,8.24808551,11.92372002,8.243990847,2.23707071
1.64617E+18,4.22305835,1.306203448,8.783805667,6.89368867,11.24207956,7.549933663,2.057191969
1.64617E+18,4.233041016,1.293605832,8.797206415,5.129384749,10.26522502,6.877885328,1.826000676
1.64617E+18,4.243023193,1.121208115,8.464520521,3.406642088,9.192955216,6.25167886,1.618993912
1.64617E+18,4.253006104,1.236695174,8.036717718,1.925052701,8.356080094,5.682932073,1.478754376
1.64617E+18,4.262988037,1.704090567,7.381350606,0.862032425,7.624392522,5.145008025,1.383861926
1.64617E+18,4.272970215,2.165691011,6.424563092,0.249704829,6.784362975,4.6427166,1.301920414
1.64617E+18,4.282953125,2.486870007,5.590817435,-0.026014731,6.119022699,4.189950594,1.265164385
1.64617E+18,4.292935303,2.71926422,4.929191847,0.002498831,5.629505876,3.790441677,1.223006246
1.64617E+18,4.302918213,2.872151181,4.451445448,0.229283972,5.302564485,3.454883514,1.129119921
1.64617E+18,4.312900146,2.76181566,4.120225242,0.477372013,4.983148184,3.167786793,0.977653438
1.64617E+18,4.322883057,2.378155365,3.789278301,0.656185442,4.521596213,2.93455304,0.773680164
1.64617E+18,4.332865234,1.778980681,3.515646653,0.707636228,4.003160337,2.777732881,0.567585527
1.64617E+18,4.342846924,1.18362877,3.221661953,0.712992787,3.505487344,2.704342464,0.436760171
1.64617E+18,4.352830322,0.53935128,2.880551929,0.522584781,2.976839612,2.714703405,0.456428327
1.64617E+18,4.362812012,0.059611844,2.594702021,0.177924372,2.601478278,2.820897105,0.60456196
1.64617E+18,4.372795166,-0.384263594,2.209530152,-0.251049814,2.256702908,3.013033194,0.783214596
1.64617E+18,4.3827771,-0.767498357,1.847528147,-0.713217828,2.123933533,3.278396705,0.919663155
1.64617E+18,4.39276001,-1.054907697,1.568438234,-1.264081778,2.273924248,3.60288415,1.02185695
1.64617E+18,4.402742188,-1.296668289,1.157597672,-1.700377684,2.431597271,3.948515934,1.095756375
1.64617E+18,4.412724365,-1.45653751,0.742902187,-2.086478358,2.650810652,4.30038562,1.116905156
1.64617E+18,4.422707031,-1.53442359,0.453843253,-2.482359836,2.953394625,4.645220458,1.086284901
1.64617E+18,4.432689209,-1.527043709,0.159197459,-2.886317653,3.269256172,4.984749484,1.033772976
1.64617E+18,4.442672119,-1.560975059,-0.044662733,-3.25375805,3.609096749,5.331829072,0.980836024
1.64617E+18,4.452654053,-1.677816601,-0.221304664,-3.667106796,4.038776616,5.663415804,0.899509194
1.64617E+18,4.462635986,-1.780710866,-0.39388709,-4.138839926,4.522839171,5.966418908,0.806767182
1.64617E+18,4.472619141,-1.841217065,-0.629977819,-4.508266529,4.910338015,6.248381045,0.743187359
1.64617E+18,4.482601074,-1.989544024,-0.898911664,-4.904872229,5.368807986,6.504843257,0.676733548
1.64617E+18,4.492584229,-1.959171244,-1.194596738,-5.250739092,5.730242084,6.729466719,0.633805366
1.64617E+18,4.502566162,-1.909420102,-1.549234352,-5.418485769,5.950294129,6.944580445,0.623121666
1.64617E+18,4.512549072,-1.820049189,-1.866713909,-5.51384993,6.099159034,7.164451103,0.621401476
1.64617E+18,4.52253125,-1.710578906,-2.094082403,-5.744087258,6.348684882,7.410402837,0.637612131
1.64617E+18,4.532513672,-1.584426223,-2.129489232,-6.195415313,6.740052058,7.682713314,0.704054222
1.64617E+18,4.542496582,-1.390484198,-2.37380886,-6.355054087,6.924964062,7.968498336,0.831837196
1.64617E+18,4.552478516,-1.144262682,-2.537344641,-6.497737049,7.068807655,8.287951914,0.971435484
1.64617E+18,4.562461426,-1.030242042,-2.679310395,-6.758078422,7.342460543,8.644009436,1.102954472
1.64617E+18,4.572443359,-0.89571886,-2.934336127,-6.816332458,7.474960131,9.006889064,1.207075816
1.64617E+18,4.582426514,-0.714701929,-3.029403351,-6.949877006,7.615042607,9.356159549,1.218534263
1.64617E+18,4.592408691,-0.535060963,-3.007484949,-7.265320673,7.881379349,9.678946108,1.139529693
1.64617E+18,4.602390625,-0.309544088,-3.018198651,-7.563125808,8.149000713,9.94662086,0.990479381
1.64617E+18,4.612373535,-0.091653032,-3.031910366,-8.003128168,8.55867637,10.13573478,0.789313684
1.64617E+18,4.622355713,0.176799167,-3.149260734,-8.505778414,9.071789655,10.21105274,0.660688728
1.64617E+18,4.632338379,0.398568087,-3.348467547,-8.986024521,9.597902278,10.15460101,0.770595555
1.64617E+18,4.642320801,0.656252297,-3.756888189,-9.373334571,10.11949984,9.987920007,1.014614577
1.64617E+18,4.65230249,0.930856808,-4.357642252,-9.650297409,10.62938288,9.742179674,1.228115874
1.64617E+18,4.662285645,1.178448737,-5.099624402,-9.642280107,10.97125682,9.438833728,1.340961773
1.64617E+18,4.672267578,1.137791732,-5.574978061,-9.376285237,10.96766499,9.119620113,1.31792027
1.64617E+18,4.682250488,1.187376651,-5.6696671,-9.165897105,10.84290819,8.809871968,1.206462645
1.64617E+18,4.692232422,1.233457945,-5.225573671,-9.090984779,10.55812687,8.519323396,1.016821924
1.64617E+18,4.7022146,1.107520659,-4.607602517,-8.851429589,10.04013988,8.260264984,0.762620346
1.64617E+18,4.71219751,0.935907224,-4.148132071,-8.284186166,9.311856015,8.000191122,0.514332229
1.64617E+18,4.722179688,0.542074933,-3.804851717,-7.589660179,8.507272387,7.743067039,0.430152907
1.64617E+18,4.732162598,0.046637833,-3.713255968,-7.00797965,7.931092217,7.490079107,0.611872621
1.64617E+18,4.742144531,-0.20693127,-3.856536312,-6.617554684,7.662096506,7.21456777,0.902517786
1.64617E+18,4.752127441,-0.385736516,-3.841441619,-6.541604248,7.595923413,6.905764585,1.181683722
1.64617E+18,4.762109619,-0.62281728,-3.520057455,-6.909125308,7.779120669,6.563637623,1.406268202
1.64617E+18,4.772091797,-0.687063396,-3.057144176,-7.219529228,7.870183536,6.195536747,1.517311373
1.64617E+18,4.782074707,-0.583787584,-2.329727727,-7.565331209,7.937422474,5.832875173,1.507078126
1.64617E+18,4.792056641,-0.72613167,-1.456146903,-7.799622196,7.967542745,5.463898764,1.394101926
1.64617E+18,4.802039551,-0.913360022,-0.877969414,-7.33073218,7.43940126,5.094876262,1.149485411
1.64617E+18,4.812021484,-1.231992111,-0.546675266,-6.604485944,6.740615179,4.773060091,0.862783533
1.64617E+18,4.822003418,-1.577650299,-0.302820917,-5.757477485,5.977393074,4.496661624,0.586772544
1.64617E+18,4.831986816,-1.800224544,-0.057525137,-4.852487962,5.175978842,4.273403919,0.362944394
1.64617E+18,4.841968506,-2.04705411,0.229522457,-4.083987808,4.574064659,4.108000342,0.281736546
1.64617E+18,4.85195166,-2.255375519,0.56834057,-3.466699374,4.174653793,3.983038671,0.321611415
1.64617E+18,4.861933594,-2.371332826,0.771596951,-3.252067028,4.098111905,3.876629562,0.405660942
1.64617E+18,4.871916504,-2.259955687,0.844952111,-3.490920208,4.2435678,3.770850854,0.467340116
1.64617E+18,4.881898682,-1.90749834,0.812789378,-3.707212596,4.247658381,3.650527886,0.484714268
1.64617E+18,4.891880615,-1.619653019,0.730200527,-3.890883987,4.277317724,3.541527668,0.460111553
1.64617E+18,4.901863525,-1.41667414,0.651449062,-3.922691915,4.221239552,3.461005291,0.389309891
1.64617E+18,4.911845703,-1.313634475,0.579613075,-3.708369365,3.976630508,3.424175044,0.328285187
1.64617E+18,4.921828369,-1.240956485,0.601760025,-3.481602929,3.744816028,3.447456384,0.371985427
1.64617E+18,4.931810547,-1.207524097,0.802074507,-3.209773362,3.521943072,3.521871557,0.482149209
1.64617E+18,4.94179248,-1.236876229,1.080587497,-2.890401708,3.324447951,3.633799165,0.587566143
1.64617E+18,4.951775635,-1.147480621,1.435536661,-2.509606155,3.110562704,3.780029617,0.668738321
1.64617E+18,4.961757813,-1.029268302,1.875733667,-2.160047452,3.040324821,3.958337008,0.703285771
1.64617E+18,4.971740479,-0.953102762,2.321833174,-1.715908431,3.040338124,4.156695094,0.696084742
1.64617E+18,4.981722656,-0.920960999,2.705547245,-1.3426234,3.157656195,4.379609,0.658822031
1.64617E+18,4.99170459,-0.850584563,3.155266696,-1.173130172,3.472093954,4.616598105,0.600284922
1.64617E+18,5.0016875,-0.741712831,3.621313598,-1.086772323,3.852937085,4.84221621,0.549574413
1.64617E+18,5.011669678,-0.733646137,4.027168188,-0.981375428,4.209443907,5.063501988,0.552188187
1.64617E+18,5.021652832,-0.811245071,4.350727358,-0.750922412,4.488967763,5.292145396,0.620372925
1.64617E+18,5.031634521,-0.803096909,4.560172949,-0.317447993,4.64121915,5.545317656,0.745012557
1.64617E+18,5.041617676,-0.879977831,4.702141626,0.168826288,4.786752466,5.831228313,0.879639159
1.64617E+18,5.051599365,-0.95164606,4.745203938,0.724630033,4.893636615,6.149933963,1.011021249
1.64617E+18,5.061581543,-0.767732166,4.834832479,1.128986494,5.02390568,6.502677314,1.120586336
1.64617E+18,5.071564697,-0.519656327,5.060757203,1.373347624,5.269477191,6.883244303,1.19735187
1.64617E+18,5.081546631,-0.316471768,5.281156442,1.600940574,5.527547238,7.266549799,1.232407328
1.64617E+18,5.091529541,0.037755365,5.450756638,1.76095461,5.728275005,7.642941514,1.218512214
1.64617E+18,5.101511719,0.362611625,5.710170959,2.014032715,6.065794866,8.009248381,1.135644102
1.64617E+18,5.111493652,0.609581512,6.038970368,2.314233805,6.495877987,8.341090319,0.995449853
1.64617E+18,5.121476563,0.832529778,6.431719393,2.688860898,7.020690359,8.626360567,0.818879771
1.64617E+18,5.13145874,0.949022726,6.772426681,3.08033742,7.50032572,8.848377971,0.633416265
1.64617E+18,5.14144165,1.025406877,7.108404603,3.46421048,7.973808971,9.024311921,0.453271049
1.64617E+18,5.151423584,1.065651209,7.386626501,3.900840733,8.421070121,9.163511474,0.29560819
1.64617E+18,5.161405518,1.109518408,7.596121484,4.362259975,8.829575572,9.261565902,0.168276306
1.64617E+18,5.171388428,1.037538045,7.69781368,4.745868831,9.102532154,9.317249523,0.09007405
1.64617E+18,5.181370361,1.02618663,7.661820576,5.155070979,9.29146438,9.352287173,0.064153586
1.64617E+18,5.19135376,0.925554172,7.549801632,5.508282944,9.391343684,9.358108668,0.060930548
1.64617E+18,5.201335693,0.780758748,7.477918883,5.615569599,9.384214243,9.330937718,0.092470656
1.64617E+18,5.211317627,0.622741438,7.401459328,5.676843275,9.348580462,9.273259201,0.179850779
1.64617E+18,5.221300537,0.460022234,7.352134449,5.579253838,9.240864397,9.189298289,0.288345507
1.64617E+18,5.231282715,0.443285619,7.594093778,5.2796437,9.259665223,9.088253999,0.405723733
1.64617E+18,5.241265381,0.562529254,7.930308431,4.950965872,9.365804505,8.966746429,0.505799398
1.64617E+18,5.251247559,0.744267046,8.157422657,4.61442038,9.401614398,8.812771958,0.588486838
1.64617E+18,5.261229492,1.08643447,8.263725562,4.31685373,9.386411782,8.623022463,0.668502419
1.64617E+18,5.271212646,1.438677882,8.408520986,4.072402584,9.452908654,8.401887988,0.74119916
1.64617E+18,5.28119458,1.643514226,8.270510692,4.039061455,9.349679329,8.139358536,0.786017719
1.64617E+18,5.29117749,1.635175436,7.949749629,4.158775045,9.119634189,7.858045951,0.805666089
1.64617E+18,5.301159424,1.296173199,7.644144049,4.178253653,8.807429068,7.574958137,0.809978845
1.64617E+18,5.311142822,0.812018394,7.415770178,4.092624119,8.508971347,7.29581687,0.818093732
1.64617E+18,5.321124512,0.383686598,7.274497667,3.830705705,8.23042149,7.017211528,0.831795136
1.64617E+18,5.331106689,0.125327338,7.253773443,3.475986843,8.044589526,6.720164769,0.874787956
1.64617E+18,5.341089355,-0.018508886,7.191552257,3.086818014,7.826059794,6.388412373,0.936498088
1.64617E+18,5.351071533,0.003580786,7.036549911,2.607443429,7.504119449,6.02314796,1.013680722
1.64617E+18,5.361054443,0.226745393,6.876018573,2.037287918,7.175067035,5.637295382,1.106623323
1.64617E+18,5.371036377,0.56557169,6.642337243,1.475059109,6.827614134,5.234321322,1.202806653
1.64617E+18,5.381018799,0.92121702,6.394338634,0.995150271,6.536553482,4.817140815,1.297581834
1.64617E+18,5.391001709,1.17612117,6.138037476,0.699776747,6.288756042,4.370912229,1.39330399
1.64617E+18,5.400983643,1.336238083,5.842021562,0.526977463,6.016016406,3.894726433,1.468186724
1.64617E+18,5.410966553,1.35924954,5.532655753,0.54217211,5.722917926,3.39849412,1.505485162
1.64617E+18,5.420948486,1.200236205,5.0612067,0.781495245,5.2599539,2.891800771,1.490499499
1.64617E+18,5.43093042,0.952160439,4.506098829,1.064712467,4.727065559,2.420842782,1.409680933
1.64617E+18,5.440913818,0.591549012,3.936792336,1.252650868,4.173415667,2.021947385,1.256731822
1.64617E+18,5.450895508,0.193242937,3.346679787,1.432740309,3.645593672,1.706166577,1.057377773
1.64617E+18,5.460878662,-0.196032293,2.734502998,1.541798649,3.145326434,1.471644889,0.838675219
1.64617E+18,5.470860352,-0.450805493,2.179184114,1.449569863,2.655809064,1.317213764,0.633308634
1.64617E+18,5.480842529,-0.566564208,1.592095004,1.202840251,2.074267623,1.239210881,0.497002302
1.64617E+18,5.490825439,-0.598288549,1.119696103,0.848380331,1.526898077,1.258534343,0.531642952
1.64617E+18,5.500807373,-0.647580111,0.668341744,0.494195138,1.053693277,1.379668842,0.692620057
1.64617E+18,5.510790527,-0.579150134,0.304036138,0.049625908,0.655984437,1.604650708,0.888029797
1.64617E+18,5.520772705,-0.430112249,0.016166122,-0.343006797,0.550374012,1.921019337,1.043619859
1.64617E+18,5.530754883,-0.305713132,-0.247781752,-0.624461686,0.738111585,2.301077832,1.160728974
1.64617E+18,5.540737793,-0.194396783,-0.384192794,-0.919817674,1.015607585,2.704051952,1.244634536
1.64617E+18,5.550719727,-0.177183746,-0.371585826,-1.233494916,1.300376797,3.115091624,1.296789265
1.64617E+18,5.560702881,-0.272767176,-0.310400413,-1.546770592,1.601015182,3.544966625,1.33588696
1.64617E+18,5.570684814,-0.471800387,-0.191126383,-1.805388211,1.875780235,4.008303375,1.383948762
1.64617E+18,5.580666748,-0.729625942,-0.202275553,-2.137357481,2.267502242,4.511232579,1.430642479
1.64617E+18,5.590649902,-0.943795931,-0.35129824,-2.546333419,2.738243067,5.037027139,1.474921953
1.64617E+18,5.600631592,-1.12624969,-0.591937719,-3.048665686,3.303511933,5.576706014,1.521664864
1.64617E+18,5.610614746,-1.236146892,-0.862205443,-3.509761687,3.819670727,6.103724001,1.555367239
1.64617E+18,5.620596436,-1.118764375,-1.267964172,-4.008924676,4.350958966,6.621404097,1.570440559
1.64617E+18,5.630578857,-0.863469764,-1.681927835,-4.376980574,4.767852789,7.135830158,1.584941262
1.64617E+18,5.640561768,-0.468505985,-1.937549779,-4.722533549,5.126004304,7.647612284,1.563825541
1.64617E+18,5.650543701,-0.177524011,-2.279668688,-5.110950682,5.599126805,8.155782981,1.485554735
1.64617E+18,5.660526611,0.002794015,-2.618352945,-5.657892491,6.234382679,8.650752174,1.371455905
1.64617E+18,5.670508789,0.119104445,-2.880406968,-6.274479498,6.905072276,9.111367878,1.250742686
1.64617E+18,5.680490723,0.173380846,-3.186135882,-6.815485486,7.52544784,9.532771348,1.1415358
1.64617E+18,5.690473877,0.124050669,-3.336547977,-7.418274854,8.135031824,9.91437397,1.040042887
1.64617E+18,5.700455811,-0.1151579,-3.3553047,-7.889034171,8.573691802,10.23982723,0.936366498
1.64617E+18,5.710438721,-0.362324077,-3.411085624,-8.316833467,8.996471686,10.5106951,0.796556176
1.64617E+18,5.720420898,-0.535541366,-3.399278866,-8.849705834,9.495219571,10.70814553,0.622425628
1.64617E+18,5.730402588,-0.746802702,-3.331646761,-9.277336203,9.885674051,10.81879877,0.478730135
1.64617E+18,5.740385742,-0.976091935,-3.286383139,-9.614795887,10.20771128,10.85532258,0.415963821
1.64617E+18,5.75036792,-1.216227555,-3.28589974,-9.949936189,10.54881874,10.81755838,0.48453499
1.64617E+18,5.76035083,-1.359845753,-3.452659743,-10.18563996,10.84053971,10.69661537,0.656828309
1.64617E+18,5.770332764,-1.550283277,-3.772562144,-10.34402903,11.11910698,10.49558702,0.858643847
1.64617E+18,5.780315918,-1.681297867,-4.040597579,-10.46307042,11.34147406,10.21367897,1.049270237
1.64617E+18,5.790297607,-1.585856987,-4.010385396,-10.54153898,11.38956441,9.848525581,1.21546888
1.64617E+18,5.800279785,-1.473684898,-3.96560985,-10.45916231,11.28237053,9.41771089,1.34906336
1.64617E+18,5.810262695,-1.365129831,-3.857362826,-10.17936571,10.97097596,8.941210067,1.444446449
1.64617E+18,5.820244873,-1.336628543,-3.775529761,-9.816106395,10.60175201,8.449460602,1.505493536
1.64617E+18,5.830227783,-1.219922976,-3.768216808,-9.454815169,10.25091215,7.958369188,1.524173257
1.64617E+18,5.840209717,-1.151079157,-3.941324719,-8.931474601,9.830069293,7.482253,1.476567001
1.64617E+18,5.850191895,-1.190266673,-4.178492138,-8.267263673,9.339388627,7.026526829,1.381848232
1.64617E+18,5.860174561,-1.198709434,-4.263158965,-7.639502361,8.830256224,6.599817363,1.254748265
1.64617E+18,5.870156982,-1.205493395,-4.20913979,-7.051267004,8.300026413,6.217730763,1.088054748
1.64617E+18,5.880138916,-1.160701483,-3.853339562,-6.552841097,7.689940191,5.889518535,0.8868499
1.64617E+18,5.890121826,-1.061711532,-3.276055807,-6.187624806,7.081417496,5.623789116,0.682027757
1.64617E+18,5.90010376,-0.981221699,-2.551494163,-5.916341182,6.517362309,5.416295086,0.497742342
1.64617E+18,5.910086914,-0.894264715,-1.795923632,-5.711355785,6.053481311,5.272387374,0.342386004
1.64617E+18,5.920068604,-0.792922648,-1.033077558,-5.539824914,5.690837869,5.1737043,0.225192842
1.64617E+18,5.930050781,-0.743463913,-0.27121465,-5.432408496,5.489750271,5.10454605,0.14909555
1.64617E+18,5.940033691,-0.720685095,0.305976166,-5.214354358,5.272807582,5.03742104,0.105203192
1.64617E+18,5.950015869,-0.77542557,0.755749978,-4.955373167,5.072293965,4.958664414,0.172669241
1.64617E+18,5.959998779,-0.842747294,1.14319739,-4.80383879,5.009390222,4.872468808,0.277656394
1.64617E+18,5.969980713,-0.988320132,1.461748376,-4.69743301,5.017904132,4.753123257,0.415453239
1.64617E+18,5.979962646,-1.308887134,1.756733778,-4.530808615,5.032646004,4.596422286,0.557328721
1.64617E+18,5.989945557,-1.614984881,2.041203046,-4.276695907,5.006477197,4.415180679,0.669423788
1.64617E+18,5.999927734,-1.999403885,2.31039525,-4.056283808,5.078285187,4.230241003,0.732969296
1.64617E+18,6.009910889,-2.301879935,2.404756956,-3.819612649,5.066650574,4.039819462,0.735265597
1.64617E+18,6.019892822,-2.42034031,2.418289223,-3.645049278,4.999255367,3.854259119,0.685150348
1.64617E+18,6.029874756,-2.450555416,2.377041851,-3.400352048,4.818500167,3.690602054,0.579405095
1.64617E+18,6.039857666,-2.360558918,2.255945867,-3.075038144,4.485241326,3.570490709,0.441139617
1.64617E+18,6.0498396,-2.162478478,2.217075161,-2.852228921,4.210337903,3.520023603,0.353831723
1.64617E+18,6.059822754,-1.937936733,2.133546983,-2.500747141,3.815934718,3.527191964,0.368179578
1.64617E+18,6.069804688,-1.736549214,2.111096082,-2.10626267,3.450894417,3.602978595,0.480639576
1.64617E+18,6.079786865,-1.594385161,2.192021968,-1.738636395,3.22022994,3.748925536,0.615082554
1.64617E+18,6.089769775,-1.543524742,2.40180629,-1.347595927,3.157080434,3.955864763,0.738190643
1.64617E+18,6.099751709,-1.597059933,2.598306183,-0.87916067,3.174069774,4.206952795,0.843327844
1.64617E+18,6.109734619,-1.4804069,2.816977867,-0.428783046,3.211047149,4.502721903,0.942086176
1.64617E+18,6.119717041,-1.299365127,3.101383715,0.026791561,3.362684711,4.850738984,1.038517984
1.64617E+18,6.12969873,-1.193908172,3.381097897,0.477751952,3.617386714,5.245739737,1.143321846
1.64617E+18,6.139681885,-1.153376109,3.721474638,0.815652951,3.980570269,5.677376335,1.256289258
1.64617E+18,6.149663574,-1.092010809,3.98308384,1.130603282,4.282021516,6.126038168,1.366512138
1.64617E+18,6.159646729,-0.975357629,4.225661593,1.453312556,4.573801022,6.594729432,1.454596142
1.64617E+18,6.169628662,-0.812279675,4.50742131,1.770600975,4.91036383,7.069028062,1.491118876
1.64617E+18,6.179610596,-0.638922027,4.82567419,2.069963861,5.28962221,7.53070468,1.465787704
1.64617E+18,6.18959375,-0.507076319,5.121762584,2.374068388,5.667960751,7.967441264,1.381179852
1.64617E+18,6.199575684,-0.345788025,5.441379153,2.805408133,6.13176086,8.377837002,1.239389259
1.64617E+18,6.209558594,-0.338276919,5.880989298,3.17363062,6.691217955,8.743162796,1.046973283
1.64617E+18,6.219540771,-0.476964236,6.397945134,3.509169566,7.312692244,9.051831876,0.828793467
1.64617E+18,6.229522705,-0.626486908,6.864360284,3.928422568,7.933752695,9.300568181,0.615265817
1.64617E+18,6.239505615,-0.743203362,7.196496728,4.399018803,8.467188602,9.484785927,0.42472849
1.64617E+18,6.249488037,-0.767359241,7.498612127,4.860427523,8.968934148,9.595829293,0.255685526
1.64617E+18,6.259469727,-0.827007142,7.732616113,5.130812152,9.316787327,9.637140529,0.170114744
1.64617E+18,6.269452881,-0.746934804,7.891642308,5.284910242,9.527130007,9.620710573,0.204683401
1.64617E+18,6.27943457,-0.544187614,8.035158798,5.328930585,9.656988053,9.557301423,0.299915832
1.64617E+18,6.289417725,-0.44417475,8.15575677,5.364394113,9.771918128,9.450080301,0.414776811
1.64617E+18,6.299399658,-0.428858961,8.154144659,5.391901129,9.785018799,9.307858598,0.512384885
1.64617E+18,6.309381592,-0.351247423,8.121198667,5.434174921,9.777908754,9.140244684,0.596180098
1.64617E+18,6.319364746,-0.441387676,8.095965441,5.504689303,9.800055298,8.932716537,0.691647027
1.64617E+18,6.32934668,-0.710394002,8.014490689,5.552665107,9.775930156,8.674256716,0.794508955
1.64617E+18,6.33932959,-0.923373905,7.675980034,5.653101749,9.577622264,8.377024014,0.878329805
1.64617E+18,6.349311768,-0.976047511,7.426716519,5.649248581,9.3820465,8.063324855,0.950723084
1.64617E+18,6.359293701,-0.863265181,7.386036134,5.33566077,9.152487771,7.739986262,0.996000899
1.64617E+18,6.369276855,-0.611989742,7.472050868,4.783310381,8.893038503,7.409559327,1.020391267
1.64617E+18,6.379259033,-0.181541978,7.416202139,4.320345079,8.584776833,7.077100006,1.024484348
1.64617E+18,6.389241699,0.390122769,7.323669986,3.991136506,8.349701099,6.756742185,1.003612601
1.64617E+18,6.399223877,0.880819543,7.108035769,3.801830324,8.108879662,6.454188535,0.93122263
1.64617E+18,6.409205566,1.160993744,6.655546269,3.699495154,7.702627279,6.180858214,0.796872796
1.64617E+18,6.419188721,1.227838498,6.082229664,3.682623514,7.215457089,5.962294616,0.632242063
1.64617E+18,6.429170654,1.107532203,5.66271012,3.605010698,6.803603135,5.783330377,0.489327373
1.64617E+18,6.439153809,0.951685808,5.385979337,3.401065165,6.44063068,5.616785809,0.386307319
1.64617E+18,6.449135742,0.842416455,5.253662286,3.081459702,6.148660569,5.461385049,0.332454015
1.64617E+18,6.459117676,0.808007989,5.157295085,2.636491829,5.848218418,5.301724902,0.347112251
1.64617E+18,6.469100586,1.013904656,5.045469033,2.126692879,5.568445296,5.139943225,0.42334553
1.64617E+18,6.479082764,1.303836865,4.956701201,1.639640599,5.381198627,4.97409729,0.533511624
1.64617E+18,6.489064697,1.536187824,4.973976161,1.11643038,5.324164598,4.796711967,0.650689652
1.64617E+18,6.499047852,1.754033287,5.050298353,0.560959812,5.375576447,4.600187447,0.750785758
1.64617E+18,6.509030029,1.78267369,5.22090451,0.037730303,5.516991297,4.374309743,0.820109576
1.64617E+18,6.519012695,1.541784036,5.197060109,-0.230072492,5.425814699,4.102036377,0.847072183
1.64617E+18,6.528994873,1.068737485,5.008066062,-0.421588167,5.138157459,3.803246479,0.854369202
1.64617E+18,6.538976807,0.516558287,4.830926996,-0.523829228,4.886623084,3.491676726,0.878517138
1.64617E+18,6.548959961,-0.172546259,4.524734848,-0.467166261,4.552059092,3.164485904,0.906890057
1.64617E+18,6.558941895,-0.796332822,4.139446368,-0.356561275,4.230401652,2.842291544,0.92876042
1.64617E+18,6.568925049,-1.388712951,3.653030632,-0.121793319,3.909985943,2.549266286,0.906569075
1.64617E+18,6.578906982,-1.856409957,3.087657972,0.181799752,3.607345399,2.302298878,0.835880841
1.64617E+18,6.588888916,-2.116814459,2.584138249,0.351661228,3.358919404,2.107332164,0.729330989
1.64617E+18,6.598871826,-2.256814466,2.110233912,0.410048535,3.1167994,1.960072032,0.598728491
1.64617E+18,6.608854004,-2.254455336,1.608338867,0.372227046,2.794257638,1.85733364,0.46453394
1.64617E+18,6.618835938,-2.115766996,1.191467793,0.21764088,2.437915715,1.814762661,0.390295827
1.64617E+18,6.628819092,-1.876836659,0.753538732,-0.002774725,2.022459929,1.842760933,0.440772479
1.64617E+18,6.638801025,-1.543776233,0.381384751,-0.28036534,1.614714869,1.952965804,0.585827458
1.64617E+18,6.648783936,-1.163502585,0.120828858,-0.63314242,1.330115485,2.144079684,0.736631216
1.64617E+18,6.658765869,-0.82996738,-0.203090962,-0.979946856,1.300149081,2.40371283,0.852435166
1.64617E+18,6.668747803,-0.561291894,-0.414259431,-1.260094754,1.440311861,2.704743849,0.936914587
1.64617E+18,6.678730957,-0.355120429,-0.624140783,-1.494066592,1.657678261,3.01724763,0.983085401
1.64617E+18,6.688713135,-0.2033293,-0.798749747,-1.696717993,1.886318083,3.334527866,1.004852555
1.64617E+18,6.698696045,-0.179025099,-0.890710238,-1.881553167,2.089415476,3.662790259,1.014272561
1.64617E+18,6.708677979,-0.306739406,-0.990955157,-2.129304523,2.368547854,4.000781475,0.996653237
1.64617E+18,6.718659912,-0.423917486,-1.119171203,-2.440229836,2.717898429,4.343338236,0.964965575
1.64617E+18,6.728642822,-0.443296871,-1.274044369,-2.818306778,3.124508644,4.684265993,0.932163659
1.64617E+18,6.738625,-0.333459217,-1.502618147,-3.17215821,3.525853663,5.027403202,0.926388587
1.64617E+18,6.74860791,-0.150942403,-1.770391132,-3.501416468,3.92644695,5.385475646,0.967890317
1.64617E+18,6.758590088,0.129452821,-2.121340412,-3.75009546,4.310459272,5.76032795,1.052425474
1.64617E+18,6.768572021,0.252193138,-2.481115389,-3.823987795,4.56534967,6.161399678,1.179967579
1.64617E+18,6.778554932,0.205568165,-2.613997088,-4.056883528,4.830480618,6.592747317,1.299986828
1.64617E+18,6.788536865,0.161072021,-2.762624638,-4.365767106,5.168942011,7.047749054,1.396257913
1.64617E+18,6.798518799,0.090679219,-2.563649295,-4.830426937,5.469327639,7.515868768,1.470628277
1.64617E+18,6.808501709,-0.198926828,-2.102073402,-5.395691753,5.79411546,7.987804918,1.495188152
1.64617E+18,6.818484131,-0.475597551,-1.887964787,-5.80961976,6.127176007,8.448316289,1.457321597
1.64617E+18,6.828466797,-0.667914605,-1.731244532,-6.287786139,6.555880724,8.877028596,1.337060809
1.64617E+18,6.838448975,-0.902381386,-1.644617219,-6.854516351,7.106578105,9.248690432,1.142611102
1.64617E+18,6.848430908,-1.044110555,-1.644838168,-7.423577637,7.674969992,9.518639263,0.89715664
1.64617E+18,6.858413818,-1.226422932,-1.672356874,-8.058603387,8.321176555,9.665036656,0.676729678
1.64617E+18,6.868395996,-1.3274704,-1.70364107,-8.612141525,8.87882606,9.683087336,0.642168454
1.64617E+18,6.878378906,-1.465317029,-1.861862378,-9.076346013,9.380497985,9.579546138,0.821836779
1.64617E+18,6.888361084,-1.651823789,-2.175536113,-9.463813299,9.850139154,9.36772999,1.078672167
1.64617E+18,6.898343018,-1.763410187,-2.599110485,-9.692491706,10.18868913,9.060391669,1.3103891
1.64617E+18,6.908325928,-1.782936725,-2.907879497,-9.823916777,10.39922917,8.679047695,1.471526333
1.64617E+18,6.918307861,-1.635159947,-2.652754397,-9.937141005,10.41429908,8.2319251,1.557688439
1.64617E+18,6.928289795,-1.505043328,-2.408804186,-9.872018252,10.27249908,7.737167067,1.571613427
1.64617E+18,6.938272949,-1.444344237,-2.301373739,-9.422127536,9.806066421,7.206798892,1.520612884
1.64617E+18,6.948255127,-1.467611715,-2.239996602,-8.737781582,9.138943916,6.674684117,1.447190876
1.64617E+18,6.958237793,-1.433540081,-2.350956977,-8.043418677,8.501683356,6.176786006,1.368058331
1.64617E+18,6.968219971,-1.337493636,-2.555174312,-7.293924836,7.843414085,5.71798397,1.27778797
1.64617E+18,6.978201904,-1.342468063,-2.825537898,-6.554055733,7.262336502,5.305560806,1.187613011
1.64617E+18,6.988184814,-1.301921825,-3.06295257,-5.903197623,6.776755939,4.934798422,1.093896581
1.64617E+18,6.998166992,-1.265300652,-3.220535579,-5.354527968,6.375249401,4.591941917,0.995746326
1.64617E+18,7.008149902,-1.132289189,-3.178175863,-4.874252927,5.928003224,4.276696091,0.872679575
1.64617E+18,7.01813208,-1.021999115,-2.945575313,-4.490447379,5.46671874,4.001426393,0.731040811
1.64617E+18,7.028114014,-0.866072055,-2.58452491,-4.154430879,4.968817338,3.763738559,0.588486107
1.64617E+18,7.038096924,-0.663133216,-2.225752973,-3.836766028,4.484918674,3.569750702,0.466321988
1.64617E+18,7.048078857,-0.441353628,-1.824710166,-3.712267542,4.159962802,3.427300749,0.373299918
1.64617E+18,7.058060791,-0.103172936,-1.367974699,-3.665345632,3.913662994,3.313789346,0.298304175
1.64617E+18,7.068043945,0.232452519,-0.887917392,-3.604148528,3.719182448,3.204559847,0.255572565
1.64617E+18,7.078026123,0.483007973,-0.544561635,-3.479387591,3.554712659,3.09376659,0.248516036
1.64617E+18,7.088008789,0.649380146,-0.267591783,-3.273695507,3.348190886,2.98524478,0.260206968
1.64617E+18,7.097990967,0.655288494,0.080564068,-3.154439598,3.222791143,2.890584034,0.282205737
1.64617E+18,7.1079729,0.571702302,0.394041403,-3.098460521,3.175306245,2.806837339,0.295159557
1.64617E+18,7.117955811,0.381427275,0.626995004,-3.001417028,3.089840396,2.72682097,0.292874802
1.64617E+18,7.127938232,0.191531603,0.77021105,-2.923108046,3.028938768,2.654097875,0.283855059
1.64617E+18,7.137920898,0.115260702,0.956104793,-2.904951627,3.060419147,2.590655906,0.263128023
1.64617E+18,7.147903076,-0.005895634,1.173646305,-2.787871892,3.024848772,2.537462408,0.211484256
1.64617E+18,7.15788501,-0.20412425,1.298038993,-2.496706926,2.821368003,2.507334422,0.153384847
1.64617E+18,7.16786792,-0.462509813,1.342600603,-2.191377241,2.611249877,2.518875882,0.178814347
1.64617E+18,7.177849854,-0.679201722,1.452002058,-1.8785043,2.469494556,2.572409716,0.260110901
1.64617E+18,7.187831787,-0.930533276,1.598864937,-1.531450858,2.401583435,2.66619646,0.357095374
1.64617E+18,7.197814941,-1.211761662,1.721377218,-1.121724394,2.385324185,2.796950075,0.460638097
1.64617E+18,7.207797119,-1.452028654,1.747004411,-0.693462741,2.375142564,2.958638468,0.560683001
1.64617E+18,7.217779785,-1.450455998,1.846850102,-0.259317291,2.362609438,3.147009729,0.643343841
1.64617E+18,7.227761963,-1.359904351,1.967375008,0.117547352,2.394519085,3.360512141,0.699426986
1.64617E+18,7.237744141,-1.276067399,2.132922714,0.464246574,2.528484169,3.598537791,0.734330816
1.64617E+18,7.247726807,-1.177436345,2.312375318,0.827279676,2.723568912,3.852853669,0.759649649
1.64617E+18,7.257709229,-1.06908133,2.463439155,1.188791267,2.936782599,4.116805018,0.77971017
1.64617E+18,7.267690918,-1.023538745,2.60841052,1.431635562,3.146588214,4.386847762,0.791797144
1.64617E+18,7.277674072,-0.930329716,2.836532463,1.642767791,3.407362001,4.666982392,0.798963152
1.64617E+18,7.287656006,-0.986215854,3.025619449,1.905406336,3.709119581,4.957444331,0.816034188
1.64617E+18,7.297638916,-0.997379053,3.226692933,2.147407166,4.002208115,5.250679451,0.84124194
1.64617E+18,7.30762085,-0.937275005,3.381619875,2.413298575,4.258855178,5.544538046,0.866669373
1.64617E+18,7.317602783,-0.895841755,3.522869005,2.64869197,4.497633559,5.838007305,0.878417246
1.64617E+18,7.327585938,-0.87104736,3.713594114,2.87210325,4.774775579,6.125264974,0.862672764
1.64617E+18,7.337568115,-0.895051482,3.906619901,3.107855541,5.071642956,6.396882757,0.82131383
1.64617E+18,7.347550049,-0.912486454,4.186129793,3.225885708,5.363082395,6.638859478,0.748449494
1.64617E+18,7.357532959,-0.850494547,4.497415756,3.29059988,5.63721004,6.842827358,0.643558557
1.64617E+18,7.367514893,-0.757135734,4.85124673,3.357093337,5.947934518,7.000661577,0.507737183
1.64617E+18,7.377497803,-0.662820789,5.28525511,3.386422307,6.311981386,7.100619593,0.370492206
1.64617E+18,7.387480225,-0.624472792,5.661953749,3.414886185,6.641470784,7.1396674,0.298994767
1.64617E+18,7.397461914,-0.60596566,6.000677754,3.435010105,6.940794069,7.129528708,0.316899247
1.64617E+18,7.407445068,-0.600374269,6.321588455,3.379970355,7.193547765,7.090882207,0.358406151
1.64617E+18,7.417427002,-0.51839259,6.569063917,3.301312997,7.37021025,7.029822565,0.386616144
1.64617E+18,7.427408936,-0.508759377,6.71550594,3.279866889,7.490953407,6.954821685,0.386056316
1.64617E+18,7.437391846,-0.55335036,6.702433108,3.300366657,7.491410164,6.860959281,0.357331237
1.64617E+18,7.447373779,-0.616820377,6.563777501,3.367080478,7.402761201,6.745368831,0.319668233
1.64617E+18,7.457356934,-0.715723527,6.27184155,3.495130519,7.215552227,6.607831931,0.302661447
1.64617E+18,7.467339111,-0.771702312,5.909912611,3.570065641,6.947514678,6.445819431,0.361828457
1.64617E+18,7.477320801,-0.611761633,5.624411077,3.593704291,6.702459458,6.278296416,0.464116879
1.64617E+18,7.487303955,-0.268041719,5.540884068,3.464022849,6.540083861,6.102231336,0.587396024
1.64617E+18,7.497285889,0.064847005,5.626866653,3.360564812,6.554329052,5.912188316,0.709689794
1.64617E+18,7.507267822,0.307064692,5.641391438,3.378707203,6.582951347,5.703301823,0.792522966
1.64617E+18,7.517250977,0.410135629,5.598097655,3.510008355,6.62020145,5.476800533,0.831465367
1.64617E+18,7.52723291,0.278627849,5.36225184,3.755215288,6.552329367,5.239547101,0.809559011
1.64617E+18,7.53721582,-0.013837971,4.963155492,3.937705944,6.335505665,5.001642032,0.734942228
1.64617E+18,7.547197754,-0.365696622,4.585922307,3.894231544,6.027392201,4.774566616,0.631216286
1.64617E+18,7.557179932,-0.771081403,4.176376169,3.643092299,5.595427234,4.565377984,0.517802292
1.64617E+18,7.567162598,-1.084579343,3.95204222,3.316931422,5.272284526,4.383496697,0.437210556
1.64617E+18,7.577144775,-1.251319912,3.861029532,2.819241428,4.941808656,4.205105097,0.4005753
1.64617E+18,7.58712793,-1.233432519,3.8765217,2.231055756,4.639653656,4.023334529,0.435893767
1.64617E+18,7.597109863,-1.012099798,3.992211441,1.725766977,4.465464125,3.829545042,0.537699107
1.64617E+18,7.607091797,-0.631024259,4.087496693,1.240472354,4.317938454,3.60025703,0.686046657
1.64617E+18,7.617074951,-0.216794639,4.160723841,0.827075093,4.247667126,3.338217295,0.84410978
1.64617E+18,7.627056641,0.208835497,4.146839693,0.419956181,4.173278675,3.047752493,0.971351225
1.64617E+18,7.637038818,0.49723509,4.03420817,0.011248539,4.064751508,2.742185818,1.046907614
1.64617E+18,7.647021729,0.69337857,3.856542742,-0.366757091,3.935505879,2.440767458,1.05659909
1.64617E+18,7.657003906,0.820686269,3.627017362,-0.658813453,3.776614365,2.165190154,0.987955123
1.64617E+18,7.666986816,0.890072451,3.271815393,-0.819579184,3.488368526,1.918172034,0.85388227
1.64617E+18,7.67696875,0.854217878,2.895873417,-0.802650846,3.124102977,1.707540655,0.683329954
1.64617E+18,7.686950928,0.714472942,2.524528999,-0.644811815,2.701758784,1.542373765,0.494492016
1.64617E+18,7.696933594,0.479608321,2.084704918,-0.379608389,2.172584007,1.428129643,0.311579815
1.64617E+18,7.706916016,0.183218386,1.68698921,-0.046305824,1.697541105,1.37125553,0.203748867
1.64617E+18,7.716897949,-0.13372458,1.3063129,0.281717339,1.343019104,1.378323473,0.215813667
1.64617E+18,7.726880859,-0.41399815,0.883410728,0.545204025,1.117611923,1.453154729,0.302802328
1.64617E+18,7.736862793,-0.569794422,0.456468926,0.755422646,1.050567912,1.593856298,0.418854194
1.64617E+18,7.746845947,-0.766428463,-0.037069209,0.8960931,1.179732833,1.781647892,0.537382541
1.64617E+18,7.756827637,-0.813965509,-0.380164854,0.948526467,1.306433169,1.984032569,0.643256749
1.64617E+18,7.766809814,-0.805325107,-0.667325261,0.903439955,1.382054732,2.185011866,0.710595837
1.64617E+18,7.776792725,-0.793928026,-0.967725088,0.775402189,1.472434077,2.376220189,0.725897977
1.64617E+18,7.786774902,-0.707664285,-1.258510115,0.588926847,1.559317569,2.546495407,0.692882363
1.64617E+18,7.796756836,-0.419040163,-1.525188875,0.265548879,1.603842876,2.695310823,0.620955441
1.64617E+18,7.806739746,0.071233272,-1.764672169,-0.086381814,1.768220536,2.829638328,0.504729863
1.64617E+18,7.816721924,0.609887729,-1.965235658,-0.373569109,2.09133166,2.953117034,0.360347278
1.64617E+18,7.82670459,1.228475627,-2.120512729,-0.606644874,2.524627617,3.06956926,0.226244555
1.64617E+18,7.836687012,1.726242778,-2.235125197,-0.774802469,2.928483847,3.183345978,0.209020407
1.64617E+18,7.846668945,2.050074919,-2.246318207,-1.007059904,3.203579609,3.306954632,0.343795135
1.64617E+18,7.856651855,2.207941422,-2.186874084,-1.157554417,3.31622614,3.457933034,0.540491075
1.64617E+18,7.866633789,2.098710647,-2.190564755,-1.283816406,3.294137959,3.645359745,0.745097469
1.64617E+18,7.876615723,1.869198127,-2.112576091,-1.457713422,3.175186262,3.878275654,0.937980991
1.64617E+18,7.886598633,1.566798066,-2.009146112,-1.671992717,3.047471726,4.177064059,1.123890128
1.64617E+18,7.896580811,1.233299102,-1.852156392,-1.932354549,2.947117927,4.548686907,1.290928446
1.64617E+18,7.906563721,1.026556047,-1.747970626,-2.215589306,3.003007592,4.983365784,1.405230009
1.64617E+18,7.916545898,0.903863734,-1.588282168,-2.694619608,3.255853916,5.455494904,1.452878175
1.64617E+18,7.926527832,0.903902312,-1.396481247,-3.262811125,3.662394804,5.936178916,1.440730562
1.64617E+18,7.936510742,1.050093575,-1.378015616,-3.787086344,4.164570389,6.418117924,1.405148
1.64617E+18,7.94649292,1.270327394,-1.346642572,-4.334584032,4.713363623,6.875401184,1.339922981
1.64617E+18,7.956474609,1.436810919,-1.384976102,-4.791517068,5.190493256,7.28051011,1.233163146
1.64617E+18,7.966458008,1.486165609,-1.449718331,-5.226002126,5.623297047,7.632130292,1.078720493
1.64617E+18,7.976439941,1.433383283,-1.250677522,-5.862137298,6.163070307,7.925158844,0.871285543
1.64617E+18,7.986422852,1.27604168,-1.00762163,-6.565367985,6.763700208,8.142477921,0.646773391
1.64617E+18,7.996404785,1.085445459,-0.896865253,-7.156711245,7.293906702,8.279840616,0.457544713
1.64617E+18,8.006386719,0.88223277,-0.789607824,-7.633018844,7.724298793,8.344958276,0.345118143
1.64617E+18,8.016369629,0.63537997,-0.612368513,-8.014258049,8.062694027,8.340089016,0.354068107
1.64617E+18,8.026352051,0.573555163,-0.157736155,-8.460899993,8.481784889,8.254289267,0.48910064
1.64617E+18,8.036333984,0.522107738,0.136556004,-8.720720557,8.737402993,8.064867139,0.68989906
1.64617E+18,8.046316895,0.295255962,0.109388595,-8.758795144,8.764452882,7.782076694,0.902951387
1.64617E+18,8.056298828,0.062808046,0.010401567,-8.706462315,8.706695072,7.438263509,1.097123962
1.64617E+18,8.066281738,-0.298159867,-0.368808762,-8.54042478,8.553582562,7.051740171,1.252088976
1.64617E+18,8.076263916,-0.71284556,-0.984757472,-8.247142091,8.336261077,6.635868673,1.369350883
1.64617E+18,8.086245605,-1.132017825,-1.696072096,-7.877688017,8.137327165,6.204049544,1.443886334
1.64617E+18,8.096229004,-1.339537124,-2.321840188,-7.479241072,7.945083296,5.762131544,1.460729631
1.64617E+18,8.106210938,-1.337187346,-2.777233009,-7.029497655,7.675606195,5.312375864,1.410908467
1.64617E+18,8.116192871,-1.142452637,-3.062558602,-6.420528722,7.204696543,4.873038252,1.285032527
1.64617E+18,8.126175781,-0.895552928,-3.154070764,-5.713651787,6.5875636,4.484859133,1.094190902
1.64617E+18,8.136157715,-0.740213971,-3.156598822,-4.94066192,5.909498545,4.19196976,0.858831652
1.64617E+18,8.146139893,-0.645855845,-3.090474783,-4.289700642,5.326321034,4.010618034,0.640807478
1.64617E+18,8.156123047,-0.623551585,-2.945166148,-3.791692376,4.84146169,3.917042554,0.493159689
1.64617E+18,8.16610498,-0.637292526,-2.726723888,-3.387284477,4.394867581,3.884567204,0.438926695
1.64617E+18,8.176087891,-0.707821083,-2.54822727,-3.024964784,4.018069792,3.893750724,0.450320313
1.64617E+18,8.186069824,-0.6996388,-2.435789224,-2.720671749,3.718147167,3.912334972,0.458821867
1.64617E+18,8.196051758,-0.627578941,-2.320091883,-2.47159002,3.44752649,3.925553422,0.454924531
1.64617E+18,8.206034668,-0.588329465,-2.177594214,-2.384320902,3.282230078,3.914759866,0.467251598
1.64617E+18,8.216016602,-0.655588061,-1.928723499,-2.62524855,3.322905354,3.850554112,0.580215106
1.64617E+18,8.225999023,-0.852129016,-1.619960916,-3.167880679,3.658669871,3.711294751,0.811263309
1.64617E+18,8.235981934,-1.105152103,-1.384870888,-3.692943833,4.095981286,3.483526962,1.07192544
1.64617E+18,8.245963867,-1.349943952,-1.128613569,-4.022555726,4.390566231,3.183282924,1.261971067
1.64617E+18,8.255946777,-1.667798772,-0.889791369,-4.102117923,4.516708191,2.854295018,1.331279512
1.64617E+18,8.265928711,-2.060472394,-0.703962508,-3.922931569,4.486702775,2.536817982,1.274313204
1.64617E+18,8.275910645,-2.249588753,-0.371654215,-3.531869474,4.203912272,2.258904384,1.111395005
1.64617E+18,8.285894043,-2.320770513,0.027249826,-3.072187431,3.850331666,2.050868277,0.903020662
1.64617E+18,8.295875732,-2.203916404,0.307688816,-2.490170218,3.339590938,1.913395095,0.700557122
1.64617E+18,8.30585791,-1.809158377,0.545177137,-1.84397367,2.640172539,1.858396711,0.600938224
1.64617E+18,8.31584082,-1.359163031,0.729641139,-1.160346094,1.930311735,1.903338842,0.670502981
1.64617E+18,8.325822754,-0.960887424,0.81440675,-0.566194206,1.38099199,2.049215406,0.805582659
1.64617E+18,8.335805664,-0.620668723,0.899248349,-0.044209144,1.093540903,2.271411344,0.892384266
1.64617E+18,8.345787598,-0.475803156,0.871088422,0.475740028,1.100687175,2.547805062,0.912567303
1.64617E+18,8.35577002,-0.516932528,0.837247527,0.912466142,1.341937823,2.850634054,0.88412056
1.64617E+18,8.36575293,-0.690088881,0.863665579,1.301400578,1.707566795,3.158005241,0.839346819
1.64617E+18,8.375734863,-0.944161915,1.019049033,1.606103071,2.123551207,3.463466368,0.811268425
1.64617E+18,8.385716797,-1.173110883,1.245892626,1.788898264,2.475599842,3.770312204,0.826589975
1.64617E+18,8.395699707,-1.364634156,1.483119666,1.928739865,2.789607103,4.090873777,0.882053527
1.64617E+18,8.405681641,-1.38203888,1.740356059,2.14632697,3.089593847,4.430054991,0.964719165
1.64617E+18,8.415663818,-1.363729316,2.044528099,2.333665066,3.389077372,4.788743926,1.061595815
1.64617E+18,8.425646729,-1.209095219,2.336803364,2.461442136,3.602951373,5.162127135,1.156069583
1.64617E+18,8.435628906,-1.039241341,2.673964942,2.578764447,3.857478082,5.542929523,1.205867035
1.64617E+18,8.445611816,-0.884106894,3.059071637,2.62847628,4.128977093,5.911015966,1.196962956
1.64617E+18,8.45559375,-0.797660782,3.463275245,2.620577051,4.415649695,6.246797222,1.118352039
1.64617E+18,8.465575928,-0.719186381,3.942067354,2.573172326,4.762178062,6.543077544,0.977590707
1.64617E+18,8.475558838,-0.716623691,4.463111043,2.554222711,5.192009568,6.798102591,0.795409085
1.64617E+18,8.485541016,-0.662881871,5.049695126,2.517414783,5.681215577,7.020697931,0.602989333
1.64617E+18,8.495522705,-0.628146073,5.637184634,2.457137717,6.181419242,7.220061118,0.432689631
1.64617E+18,8.505505859,-0.538854437,6.238140356,2.317470303,6.676483192,7.387535444,0.302914953
1.64617E+18,8.515487793,-0.452305376,6.769846017,2.168050726,7.122909462,7.509419919,0.228314334
1.64617E+18,8.525470703,-0.374567326,7.095647997,2.105714389,7.410975257,7.564490221,0.191967662
1.64617E+18,8.53545166,-0.326604967,7.224589434,2.127262204,7.538342509,7.541732216,0.220227867
1.64617E+18,8.545433594,-0.355834788,7.131469837,2.251119469,7.486789652,7.447280225,0.359765548
1.64617E+18,8.555416992,-0.379907518,6.999536232,2.302982928,7.378452924,7.30198917,0.554919755
1.64617E+18,8.565398682,-0.402464364,6.922934054,2.320046875,7.312428528,7.112040648,0.776924416
1.64617E+18,8.575380859,-0.335371991,7.065136539,2.235519165,7.41796297,6.87374579,1.009538855
1.64617E+18,8.585363525,-0.164945063,7.342788528,2.227000927,7.674847449,6.581365158,1.212563186
1.64617E+18,8.595345703,0.035738837,7.501746333,2.332769579,7.8561625,6.238508747,1.333585137
1.64617E+18,8.605328613,0.08467501,7.451842193,2.607504804,7.895327936,5.88404477,1.327573634
1.64617E+18,8.615310547,-0.11994981,7.037136771,3.057555679,7.673612489,5.546075629,1.196226035
1.64617E+18,8.625292969,-0.51833896,6.216955529,3.561173309,7.183395205,5.237633729,0.987289905
1.64617E+18,8.635275879,-1.018349506,5.197644631,3.927588455,6.593822601,4.975831425,0.756832675
1.64617E+18,8.645257813,-1.412391932,4.347957601,3.938033861,6.033879097,4.75008189,0.548579858
1.64617E+18,8.655239746,-1.619725354,3.819332663,3.578865033,5.478967707,4.542962751,0.393988522
1.64617E+18,8.665222656,-1.565720354,3.66193933,2.904908372,4.929479946,4.349146077,0.361226175
1.64617E+18,8.67520459,-1.249846916,3.723395377,2.184411493,4.494156653,4.167210178,0.466072165
1.64617E+18,8.685186523,-0.746008994,3.85847371,1.608282753,4.24628334,3.996755873,0.606016852
1.64617E+18,8.695169678,-0.04089074,4.146471444,1.180817804,4.311522721,3.852451527,0.694733278
1.64617E+18,8.705151855,0.607675971,4.379987062,0.915104674,4.515636535,3.72230192,0.718059007
1.64617E+18,8.715134521,1.147163956,4.387141318,0.705480511,4.589193484,3.591848021,0.679548032
1.64617E+18,8.725116699,1.588220793,4.249210811,0.514184033,4.565372167,3.469797276,0.59363244
1.64617E+18,8.735098877,1.826213557,3.903731486,0.479122656,4.336327247,3.346454876,0.468036248
1.64617E+18,8.745081543,1.910050362,3.415796578,0.622041181,3.962687709,3.227427448,0.333049189
1.64617E+18,8.755063965,1.764378155,2.948291587,0.855463568,3.540800964,3.124461782,0.234362952
1.64617E+18,8.765045654,1.37262457,2.533897716,1.169665126,3.110120954,3.031333384,0.235448674
1.64617E+18,8.775028809,0.804842292,2.123700127,1.619898372,2.789613608,2.947774223,0.324204305
1.64617E+18,8.785010742,0.233940785,1.839904521,2.101945976,2.803239879,2.868211051,0.432722355
1.64617E+18,8.794992676,-0.214624747,1.59799926,2.541770056,3.01002665,2.760859245,0.552193692
1.64617E+18,8.804975586,-0.503724634,1.240677521,2.918583262,3.21109755,2.643503343,0.608594292
1.64617E+18,8.81495752,-0.702024745,0.858923353,3.180795105,3.36868603,2.565640825,0.580139233
1.64617E+18,8.824940674,-0.735730688,0.552547958,3.202385006,3.331948171,2.305001703,0.727561889
1.64617E+18,8.834922852,-0.642259793,0.153355163,3.075976886,3.146052964,2.103575659,0.693390823
1.64617E+18,8.844904785,-0.527797584,-0.205180043,2.877846762,2.933031048,1.894383108,0.66218394
1.64617E+18,8.854887695,-0.405507385,-0.496346178,2.529581606,2.60951698,1.737420513,0.578070173
1.64617E+18,8.864869629,-0.213860156,-0.722038263,2.146254489,2.274529347,1.644264296,0.49978539
1.64617E+18,8.874851563,-0.029206184,-0.902369111,1.77787535,1.993981889,1.630857715,0.484255785
1.64617E+18,8.884834717,0.082368523,-0.997056981,1.411038764,1.729721825,1.692431997,0.559771752
1.64617E+18,8.89481665,0.412338071,-1.490392287,0.990616719,1.836467625,1.823100665,0.690476899
1.64617E+18,8.904798828,2.158990052,-1.036200659,-0.426581737,2.432472369,1.992905573,0.860698123
1.64617E+18,8.914781738,-0.262508781,-0.64454352,0.311040464,0.762294811,2.156871494,1.061561405
1.64617E+18,8.924763672,-0.022253881,-1.315475281,-0.073010291,1.317687729,2.544609268,1.182589419
1.64617E+18,8.934746582,0.611143391,-0.394023868,-0.763173406,1.05412746,2.943654893,1.361050728
1.64617E+18,8.94472876,0.174006358,-1.057843166,-0.842355664,1.363405091,3.437852242,1.477477366
1.64617E+18,8.954710693,0.320239706,-0.996250925,-1.311664198,1.67795481,3.976398117,1.599641957
1.64617E+18,8.964693848,0.372667776,-1.097657875,-1.799402707,2.140463544,4.550756033,1.699287884
1.64617E+18,8.974675537,0.435707329,-1.194095803,-2.279244909,2.609724702,5.133557623,1.77060836
1.64617E+18,8.984657715,0.498382068,-1.166125846,-2.758902403,3.03640851,5.71168876,1.79581783
1.64617E+18,8.994640625,0.561753557,-1.153894141,-3.293291604,3.534516704,6.264734952,1.737410539
1.64617E+18,9.004622559,0.560426692,-1.126934822,-3.872750365,4.072131574,6.758973008,1.586909312
1.64617E+18,9.014605713,0.361704447,-1.185339665,-4.471096197,4.639672557,7.180575132,1.361051143
1.64617E+18,9.024587646,0.111723176,-1.302226507,-5.144717343,5.308143977,7.53082156,1.084725383
1.64617E+18,9.034569824,-0.122882904,-1.406159176,-5.827593224,5.996100951,7.810901164,0.798484254
1.64617E+18,9.044552734,-0.274395654,-1.59547997,-6.551817599,6.748863842,8.016728359,0.521334956
1.64617E+18,9.054534668,-0.253854423,-1.816823797,-7.191236031,7.421533967,8.137079944,0.311402736
1.64617E+18,9.064516602,-0.034968547,-1.975302294,-7.719690581,7.968479442,8.164040263,0.254815026
1.64617E+18,9.074499756,0.298449753,-2.111707492,-8.11548555,8.39103608,8.11690664,0.321496319
1.64617E+18,9.084481689,0.640565848,-2.098990633,-8.281013381,8.566870426,8.014973726,0.375482528
1.64617E+18,9.094463867,0.776427513,-2.011237531,-8.198162664,8.47689726,7.89073581,0.377848745
1.64617E+18,9.104446533,0.707375458,-1.956493549,-8.022794407,8.288152818,7.767708745,0.367101018
1.64617E+18,9.114428711,0.561861072,-1.682351029,-7.946596718,8.142136835,7.641115842,0.383700369
1.64617E+18,9.124410645,0.339768473,-1.326604577,-7.99247058,8.108940023,7.486655821,0.455161102
1.64617E+18,9.134393555,0.069644614,-1.168973052,-7.968787507,8.054372893,7.274036557,0.591113336
1.64617E+18,9.144375977,-0.221306929,-1.126239826,-7.869113665,7.952379693,7.005146764,0.761893372
1.64617E+18,9.154358643,-0.477458522,-1.314600251,-7.562899598,7.691137159,6.696974123,0.922709247
1.64617E+18,9.16434082,-0.802289027,-1.857344023,-7.218986207,7.497143214,6.377478166,1.065283629
1.64617E+18,9.17432251,-1.062318193,-2.547235921,-6.835578426,7.371706939,6.042584667,1.180794233
1.64617E+18,9.184305664,-1.210451237,-3.20228213,-6.475211913,7.32449127,5.692568542,1.251578266
1.64617E+18,9.194287598,-1.203705927,-3.62258844,-6.159670631,7.246626611,5.32441555,1.258842054
1.64617E+18,9.204269531,-0.996261447,-3.689612642,-5.891166994,7.022223784,4.935372,1.20466993
1.64617E+18,9.214252686,-0.690337887,-3.511221822,-5.542765059,6.59753663,4.538344337,1.101286771
1.64617E+18,9.224234863,-0.397471451,-3.083696082,-5.111369785,5.982747375,4.164872283,0.964397935
1.64617E+18,9.234216797,-0.172169754,-2.572957806,-4.705163896,5.365474964,3.846986361,0.826905505
1.64617E+18,9.244199707,-0.044630621,-2.140099473,-4.375070941,4.870653281,3.598286696,0.696520789
1.64617E+18,9.254181641,0.00363094,-1.700045676,-4.162384468,4.496177593,3.39377495,0.58407095
1.64617E+18,9.264164551,-0.056257967,-1.353849727,-3.920657779,4.148208223,3.211674698,0.487942407
1.64617E+18,9.274146973,-0.154368724,-1.112370875,-3.70508669,3.871545693,3.045308686,0.419013064
1.64617E+18,9.284128662,-0.229926288,-0.863461581,-3.531675997,3.642961343,2.88181913,0.382059181
1.64617E+18,9.294111816,-0.36337154,-0.593033113,-3.283335442,3.356191111,2.719220497,0.369313812
1.64617E+18,9.30409375,-0.6005459,-0.243854349,-2.982324789,3.05194716,2.55614443,0.409862903
1.64617E+18,9.314075684,-0.892262143,0.091512163,-2.718677944,2.862816091,2.400638073,0.48106828
1.64617E+18,9.324058594,-1.112436341,0.39285307,-2.543607793,2.803888149,2.262852351,0.524335553
1.64617E+18,9.334040527,-1.341037007,0.639693157,-2.465370123,2.878478319,2.134503963,0.533202968
1.64617E+18,9.344022949,-1.447650293,0.797968241,-2.291551433,2.825535817,2.013699815,0.485693122
1.64617E+18,9.354005859,-1.494910933,0.8556927,-2.046849527,2.675175075,1.930432394,0.403856408
1.64617E+18,9.363987793,-1.53226802,0.812699362,-1.778947363,2.484548099,1.896808223,0.350987966
1.64617E+18,9.373970703,-1.464990719,0.759594379,-1.509775617,2.236650139,1.916484574,0.387047973
1.64617E+18,9.383952637,-1.401772485,0.737282009,-1.248854398,2.016975004,1.992595458,0.500677644
1.64617E+18,9.39393457,-1.267374536,0.69758479,-0.940344329,1.725430442,2.119270804,0.633462284
1.64617E+18,9.403917969,-1.165609202,0.738937375,-0.579644055,1.496883591,2.301598114,0.74622248
1.64617E+18,9.413899658,-1.205454963,0.832437497,-0.242958862,1.484958876,2.532338747,0.81526589
1.64617E+18,9.423881836,-1.141603984,1.001750692,0.069749828,1.52040427,2.790744967,0.851071968
1.64617E+18,9.433864746,-1.010506099,1.239737026,0.481963432,1.670436835,3.071136636,0.848241116
1.64617E+18,9.44384668,-1.114790796,1.353456344,0.947045288,1.992861604,3.363506524,0.818406663
1.64617E+18,9.453828613,-1.127826584,1.595749435,1.285379418,2.33893337,3.656391267,0.799337695
1.64617E+18,9.463811768,-1.180577565,1.814415567,1.582265684,2.681311607,3.952981928,0.805694431
1.64617E+18,9.473793701,-1.20218164,2.033029968,1.846106006,2.997758985,4.257409258,0.842000657
1.64617E+18,9.483776855,-1.141383108,2.251053418,2.100684578,3.283728458,4.577315743,0.907791802
1.64617E+18,9.493758789,-1.036784084,2.441421969,2.35750596,3.548703541,4.911506722,0.982154798
1.64617E+18,9.503740723,-0.896558598,2.592386437,2.635969851,3.804289922,5.255810784,1.045513411
1.64617E+18,9.513723633,-0.791375053,2.706554376,2.933465773,4.069021075,5.60758629,1.088849567
1.64617E+18,9.523705566,-0.749354724,2.824027786,3.18795959,4.324320962,5.954973811,1.096694796
1.64617E+18,9.533687988,-0.652397594,3.02182181,3.398389808,4.594135714,6.297293047,1.068163815
1.64617E+18,9.543671387,-0.577172185,3.324656171,3.582841536,4.921709039,6.620691987,0.9902814
1.64617E+18,9.553653564,-0.520383545,3.735216748,3.730775258,5.30483998,6.913940844,0.870724793
1.64617E+18,9.563635254,-0.518048891,4.139931229,3.921086233,5.725584903,7.16696023,0.721154302
1.64617E+18,9.573618408,-0.531982578,4.624430609,4.090508734,6.196823834,7.367872167,0.551520596
1.64617E+18,9.583600098,-0.564812834,5.08145337,4.214131022,6.625638245,7.511938572,0.391859263
1.64617E+18,9.59358252,-0.562896918,5.47560817,4.311072808,6.99174417,7.614541303,0.257732221
1.64617E+18,9.60356543,-0.483746882,5.882175878,4.333398037,7.322044978,7.681834009,0.152843919
1.64617E+18,9.613547363,-0.40470659,6.230731541,4.231959524,7.542896286,7.718834157,0.095172829
1.64617E+18,9.623530273,-0.339545332,6.626543462,3.999699167,7.747513324,7.731116751,0.078062023
1.64617E+18,9.633512451,-0.289745309,6.850965965,3.77622242,7.828125111,7.71317046,0.091672179
1.64617E+18,9.643494385,-0.311626301,6.934614555,3.674565295,7.854197609,7.652034673,0.167291252
1.64617E+18,9.653477539,-0.450482837,6.944604034,3.599624328,7.83503384,7.54011331,0.308984114
1.64617E+18,9.663459473,-0.622147418,6.803373024,3.626664896,7.734704272,7.376205058,0.490494243
1.64617E+18,9.673441406,-0.713049047,6.669117698,3.653170041,7.637487883,7.172364381,0.684390496
1.64617E+18,9.683424561,-0.628781741,6.71784695,3.608760406,7.651665556,6.925719685,0.886821467
1.64617E+18,9.69340625,-0.420479328,6.799826729,3.511799914,7.664671229,6.626172491,1.076614561
1.64617E+18,9.703388428,-0.148135529,6.902371158,3.391593572,7.692046457,6.282005501,1.228952072
1.64617E+18,9.713371094,0.045461628,6.91612905,3.305811478,7.665722231,5.9083806,1.308827899
1.64617E+18,9.723353516,0.058068596,6.799228763,3.323026232,7.568050415,5.533625008,1.288355171
1.64617E+18,9.733335449,-0.168201946,6.311932738,3.494702065,7.216767233,5.180186838,1.160189088
1.64617E+18,9.743318359,-0.58754964,5.631356366,3.647275722,6.734983986,4.870505589,0.973539667
1.64617E+18,9.753300293,-0.95592118,4.86784569,3.712156483,6.195951317,4.611312387,0.765434044
1.64617E+18,9.763283447,-1.236779345,4.233422875,3.605039924,5.696297502,4.407609076,0.560135906
1.64617E+18,9.773265137,-1.378467451,3.826067524,3.193853324,5.171040927,4.230933494,0.373257323
1.64617E+18,9.783247314,-1.25996499,3.628604047,2.631702841,4.656193612,4.061696968,0.280871879
1.64617E+18,9.793230469,-0.963746832,3.589091828,2.005829535,4.22300133,3.885090836,0.386798449
1.64617E+18,9.803212402,-0.479846806,3.68003379,1.36946406,3.95579745,3.678336025,0.628181317
1.64617E+18,9.813194336,0.104035544,3.844063492,0.751252083,3.918166308,3.442021217,0.875258521
1.64617E+18,9.823177246,0.655616191,3.975360844,0.192761291,4.033668721,3.179518728,1.065958228
1.64617E+18,9.833159424,1.10414899,3.957906436,-0.299764452,4.119954742,2.911673127,1.150816103
1.64617E+18,9.843141113,1.379648185,3.822000421,-0.808556271,4.143051964,2.656263561,1.13766021
1.64617E+18,9.853124512,1.430869838,3.667794194,-1.340334997,4.158918206,2.420750381,1.045539261
1.64617E+18,9.863106445,1.408295603,3.220487649,-1.756832562,3.929541685,2.205900417,0.872757882
1.64617E+18,9.873088379,1.270306352,2.601786426,-1.928266987,3.478675668,2.029031481,0.658432009
1.64617E+18,9.883071289,0.970409213,1.916132312,-1.933806501,2.890132291,1.904197412,0.460276709
1.64617E+18,9.893053223,0.586967529,1.077544476,-1.772102027,2.155453218,1.841476054,0.351542342
1.64617E+18,9.903036133,0.236904311,0.286899126,-1.548579103,1.592649365,1.855726782,0.366549553
1.64617E+18,9.913018311,-0.048882324,-0.3919003,-1.231356735,1.293141422,1.924968315,0.375601272
1.64617E+18,9.923000488,-0.327419937,-0.984226726,-0.872178556,1.355212712,2.018882729,0.319030195
1.64617E+18,9.932983398,-0.475950529,-1.394824127,-0.529009846,1.565859083,2.097314208,0.23030088
1.64617E+18,9.942965576,-0.543734025,-1.694419068,-0.173077516,1.787920159,2.145641922,0.150633942
1.64617E+18,9.952947266,-0.587720393,-1.918255881,0.129081138,2.010418569,2.171774085,0.100700084
1.64617E+18,9.96293042,-0.568375057,-2.055092455,0.350467635,2.160852324,2.177499487,0.092670808
1.64617E+18,9.972912109,-0.48918995,-2.122194983,0.481015338,2.230334977,2.176834193,0.092811706
1.64617E+18,9.982894287,-0.3884826,-2.170873966,0.507137621,2.262918707,2.18612851,0.10191162
1.64617E+18,9.992877441,-0.336202962,-2.220610349,0.486291817,2.297960506,2.228407286,0.181567132
1.64617E+18,10.00285938,-0.280108844,-2.236156878,0.377706355,2.28506469,2.312351066,0.328729019
1.64617E+18,10.01284155,-0.252311139,-2.213129638,0.146612118,2.23228556,2.44516114,0.509471883
1.64617E+18,10.02282422,-0.226293046,-2.120822526,-0.168763745,2.139527502,2.64715064,0.735365322
1.64617E+18,10.0328064,-0.237166323,-1.965886816,-0.527257449,2.049136222,2.923364458,0.973130908
1.64617E+18,10.04278955,-0.333822716,-1.830844139,-0.857883488,2.049241798,3.265717393,1.184586152
1.64617E+18,10.05277148,-0.455639562,-1.667668424,-1.134259466,2.067672585,3.658619357,1.355241908
1.64617E+18,10.06275342,-0.609999007,-1.511910291,-1.408049519,2.154199379,4.087370647,1.458385643
1.64617E+18,10.07273657,-0.773033779,-1.463233062,-1.630640716,2.32327815,4.533542987,1.481033896
1.64617E+18,10.08271826,-0.933324806,-1.478279824,-2.03877728,2.685706468,4.972846334,1.410104534
1.64617E+18,10.09270044,-0.921816739,-1.659783808,-2.497726917,3.137398307,5.382256845,1.274436853
1.64617E+18,10.10268311,-0.788714164,-1.882711104,-2.981324088,3.613165434,5.757620141,1.098632209
1.64617E+18,10.11266553,-0.579669189,-2.155692764,-3.619117549,4.252180557,6.102748428,0.893750849
1.64617E+18,10.12264746,-0.321925431,-2.4808091,-4.215243367,4.901665678,6.406065373,0.710059093
1.64617E+18,10.13263037,-0.011076617,-2.704857509,-4.757487958,5.472665575,6.666031317,0.574664397
1.64617E+18,10.14261255,0.175224538,-2.765377152,-5.297319642,5.978261438,6.894581842,0.504845044
1.64617E+18,10.15259424,0.187237632,-2.78394975,-5.709899157,6.355185483,7.104165458,0.515853332
1.64617E+18,10.16257739,0.083600586,-2.733478039,-6.024246261,6.615922782,7.267307347,0.511138071
1.64617E+18,10.17255933,-0.104023854,-2.501293085,-6.232299229,6.716311617,7.377714053,0.476586242
1.64617E+18,10.18254126,-0.447797544,-2.17365103,-6.406290937,6.779811577,7.451610745,0.422528143
1.64617E+18,10.19252441,-0.720516753,-1.861611618,-6.595571985,6.891031273,7.485728398,0.378372485
1.64617E+18,10.20250635,-0.814848064,-1.56522804,-6.840505361,7.0644483,7.480582345,0.386684316
1.64617E+18,10.21248926,-0.719157155,-1.420658241,-7.109210074,7.285350007,7.435198093,0.453689539
1.64617E+18,10.22247144,-0.371307009,-1.292452717,-7.379808638,7.501325113,7.345190685,0.552920496
1.64617E+18,10.23245337,0.200393941,-1.045899046,-7.684735003,7.758170829,7.199563655,0.671648253
1.64617E+18,10.24243652,0.78243048,-0.827878811,-7.99333918,8.074097598,6.977960907,0.803432392
1.64617E+18,10.25241846,1.167776536,-0.941024128,-7.84452809,7.986604372,6.674177683,0.900047752
1.64617E+18,10.26240039,1.305941144,-1.170503915,-7.518156786,7.719989841,6.333135206,0.980657534
1.64617E+18,10.27238354,1.238531742,-1.501918474,-7.196628245,7.455278538,5.98400614,1.044187059
1.64617E+18,10.28236523,0.933525881,-2.103795988,-6.738771664,7.120988111,5.629677703,1.085189886
1.64617E+18,10.29234741,0.500770424,-2.703805954,-6.262458805,6.839570742,5.274819102,1.119173838
1.64617E+18,10.30233032,0.250863936,-3.112375064,-5.826688384,6.61060578,4.911445096,1.141812572
1.64617E+18,10.3123125,0.26035774,-3.247431185,-5.491643944,6.385275927,4.535995042,1.138639845
1.64617E+18,10.32229443,0.54355918,-3.043835781,-5.194448465,6.045054814,4.157569131,1.08890983
1.64617E+18,10.33227734,0.947495955,-2.54374048,-4.831872167,5.542143345,3.801407415,0.991405492
1.64617E+18,10.34225928,1.27941671,-1.882422935,-4.49261011,5.036265364,3.49038147,0.877890096
1.64617E+18,10.35224121,1.53501878,-1.179610182,-4.146523467,4.576179596,3.232797119,0.755941336
1.64617E+18,10.36222437,1.585444314,-0.497796377,-3.888503814,4.228699187,3.027417784,0.631876052
1.64617E+18,10.3722063,1.48988083,0.098724578,-3.615827275,3.911994161,2.862079678,0.498058596
1.64617E+18,10.38218823,1.251153907,0.557187308,-3.299426161,3.572402103,2.738215679,0.355034877
1.64617E+18,10.39217139,0.864655174,0.862276755,-2.964152588,3.205830678,2.657722734,0.223762257
1.64617E+18,10.40215356,0.423705889,1.063899397,-2.616472538,2.856105242,2.624690653,0.153880867
1.64617E+18,10.41213525,-0.033448717,1.212643267,-2.300796816,2.60101682,2.635730335,0.17287475
1.64617E+18,10.42211841,-0.497792906,1.323044255,-2.041866478,2.483437656,2.674782106,0.202236986
1.64617E+18,10.4321001,-0.841414584,1.421031166,-1.785147387,2.431883893,2.732597591,0.221038745
1.64617E+18,10.4420835,-1.205411562,1.446117092,-1.584109851,2.460421853,2.791292841,0.211100418
1.64617E+18,10.45206543,-1.515613822,1.417868318,-1.433525906,2.522386241,2.835797028,0.181490226
1.64617E+18,10.46204736,-1.71045718,1.367877668,-1.354810097,2.575318131,2.862727891,0.150284059
1.64617E+18,10.47203027,-1.859558192,1.335599785,-1.380231538,2.673354177,2.876675618,0.127744764
1.64617E+18,10.48201221,-1.950198833,1.35612001,-1.420059106,2.767472644,2.87813056,0.125483602
1.64617E+18,10.49199438,-2.052594208,1.352405374,-1.492117211,2.875509877,2.885380952,0.120890948
1.64617E+18,10.50197729,-2.113569048,1.395119895,-1.544862713,2.966502055,2.906075312,0.134388909
1.64617E+18,10.51195947,-2.063041953,1.512216581,-1.551237509,2.991534538,2.942852089,0.186219662
1.64617E+18,10.52194141,-2.085009308,1.640097111,-1.528452261,3.061592504,3.011578969,0.289620104
1.64617E+18,10.53192456,-2.089951002,1.698141303,-1.364475751,3.01883639,3.1069807,0.418731384
1.64617E+18,10.54190625,-2.012663472,1.78095052,-1.104137884,2.905463728,3.243497449,0.56480176
1.64617E+18,10.55188843,-1.915350807,1.888608346,-0.747094378,2.791694863,3.431636939,0.714404825
1.64617E+18,10.56187134,-1.797380115,2.005819013,-0.340923561,2.7147954,3.669959718,0.846480023
1.64617E+18,10.57185327,-1.637040207,2.129005248,0.110732996,2.687903604,3.950426165,0.942707906
1.64617E+18,10.58183569,-1.544449456,2.316976966,0.558355183,2.839976566,4.266416738,0.994715094
1.64617E+18,10.5918186,-1.456208862,2.524676591,1.003485553,3.08245347,4.600286104,1.019895852
1.64617E+18,10.60180054,-1.340519121,2.694904562,1.434521931,3.334269828,4.947698163,1.035285988
1.64617E+18,10.61178247,-1.210812618,2.916563739,1.887109632,3.678803338,5.301929962,1.028631781
1.64617E+18,10.62176538,-1.07676319,3.055734309,2.372380873,4.015609809,5.647546524,1.005575319
1.64617E+18,10.63174731,-0.934815483,3.191618989,2.856427542,4.384003885,5.978199196,0.957054836
1.64617E+18,10.64173071,-0.813386613,3.389039796,3.281284355,4.78685863,6.291417386,0.894562871
1.64617E+18,10.6517124,-0.741773476,3.578515782,3.663853347,5.17492265,6.588677623,0.837272107
1.64617E+18,10.66169458,-0.657624535,3.745983349,3.999947004,5.519459875,6.867969717,0.78317308
1.64617E+18,10.67167749,-0.543148261,3.923624227,4.30198057,5.847809328,7.128595841,0.72234346
1.64617E+18,10.68165942,-0.412960039,4.166315962,4.543923533,6.178670226,7.363405803,0.645382581
1.64617E+18,10.6916416,-0.280811476,4.454351398,4.802974282,6.556574061,7.57386093,0.562559834
1.64617E+18,10.70162427,-0.147276208,4.704728427,5.013112824,6.87658782,7.743026709,0.479423469
1.64617E+18,10.71160669,0.005074673,4.990189629,5.099584654,7.134968951,7.869753922,0.393423652
1.64617E+18,10.72158838,0.17550847,5.248666378,5.102389775,7.322136531,7.949646418,0.307928331
1.64617E+18,10.73157153,0.255506135,5.515768916,5.099417481,7.516185786,7.990267779,0.242260399
1.64617E+18,10.74155347,0.271412291,5.912403843,5.01787317,7.759460998,7.994581787,0.234023951
1.64617E+18,10.7515354,0.232376677,6.323164326,4.84253297,7.967843596,7.959640972,0.286680272
1.64617E+18,10.76151831,0.190466458,6.655669018,4.657589075,8.125721109,7.879658171,0.37208692
1.64617E+18,10.77150049,0.093445176,6.832818314,4.525128231,8.195908956,7.733655774,0.508377241
1.64617E+18,10.78148267,0.051780383,6.944215911,4.51519019,8.283221492,7.511930535,0.704215703
1.64617E+18,10.79146558,-0.062886372,6.87651191,4.554443758,8.248231852,7.21827541,0.905004236
1.64617E+18,10.80144751,-0.068352894,6.822737065,4.446126591,8.143859947,6.875087179,1.08263487
1.64617E+18,10.81142944,0.079630513,6.824217074,4.046034217,7.93389391,6.490609567,1.235668291
1.64617E+18,10.8214126,0.389185196,6.913469475,3.432181603,7.728350138,6.080923376,1.361937506
1.64617E+18,10.83139429,0.731691715,6.950229472,2.881379028,7.559325868,5.664626174,1.429323514
1.64617E+18,10.84137646,0.987109003,6.890359233,2.541151048,7.410052847,5.265094748,1.402002072
1.64617E+18,10.85135938,1.038626351,6.644499974,2.480387659,7.168015593,4.911272972,1.254771965
1.64617E+18,10.86134155,0.785068939,6.060462068,2.661951264,6.665697132,4.617287275,1.012620803
1.64617E+18,10.87132446,0.401973292,5.248907201,2.834029832,5.978656573,4.398187998,0.748218612
1.64617E+18,10.8813064,-0.007891119,4.513388402,2.86638195,5.346670236,4.257616173,0.541605326
1.64617E+18,10.89128833,-0.390611356,3.971247856,2.697005042,4.816349547,4.147321908,0.403220682
1.64617E+18,10.90127173,-0.545971502,3.583324643,2.311670676,4.299083821,4.029668926,0.360195423
1.64617E+18,10.91125342,-0.466483539,3.366467022,1.78104112,3.837032001,3.879627049,0.501504529
1.64617E+18,10.9212356,-0.141027596,3.342255833,1.233433542,3.56537812,3.708290511,0.728223079
1.64617E+18,10.93121826,0.338054655,3.472592816,0.727321756,3.56401161,3.542512714,0.908313138
1.64617E+18,10.94120044,0.917467969,3.7542707,0.234117383,3.871835084,3.388218806,1.01619779
1.64617E+18,10.95118237,1.365934133,3.998508496,-0.153228906,4.228158623,3.228222395,1.052755373
1.64617E+18,10.96116528,1.618211442,4.136980562,-0.538296145,4.474704368,3.059612628,1.013389919
1.64617E+18,10.97114771,1.712354538,4.135150716,-0.938155295,4.572938319,2.879655095,0.899504705
1.64617E+18,10.98112939,1.549968512,3.787813197,-1.122182075,4.243727584,2.676621997,0.701801672
1.64617E+18,10.99111255,1.101351615,3.312701237,-1.030205218,3.639819729,2.488015327,0.470685392
1.64617E+18,11.00109448,0.368021777,2.656463773,-0.800178903,2.798665053,2.33204641,0.284938757
1.64617E+18,11.01107642,-0.39476643,2.023604845,-0.509060698,2.123666617,2.264437853,0.243379379
1.64617E+18,11.02105933,-1.133646303,1.514391587,-0.245769243,1.907600152,2.312061424,0.257366479
1.64617E+18,11.03104126,-1.732368421,1.04096042,-0.005936989,2.021072535,2.443463958,0.339621356
1.64617E+18,11.04102344,-2.150401087,0.670012308,0.297079743,2.271870969,2.615213331,0.485522776
1.64617E+18,11.05100659,-2.46375392,0.395991368,0.484955016,2.542060957,2.801397866,0.647969458
1.64617E+18,11.06098853,-2.606899823,0.08089783,0.594848053,2.675129035,2.990948215,0.803065145
1.64617E+18,11.07097046,-2.48363234,-0.266558348,0.474730559,2.542607335,3.200147522,0.952184053
1.64617E+18,11.08095337,-2.232216616,-0.742730338,0.155323833,2.357660889,3.456791806,1.077934695
1.64617E+18,11.0909353,-1.662499789,-1.218089258,-0.281595758,2.080130563,3.767539431,1.160997562
1.64617E+18,11.10091748,-1.019481067,-1.668348807,-0.82620474,2.122579483,4.133465847,1.148085215
1.64617E+18,11.11090039,-0.433819433,-2.134590355,-1.419442436,2.599902327,4.515969337,1.047157025
1.64617E+18,11.12088257,0.038466217,-2.600735456,-1.90093825,3.221625489,4.87032652,0.932048677
1.64617E+18,11.1308645,0.365659359,-2.919889084,-2.305952883,3.738566266,5.18032402,0.843453847
1.64617E+18,11.14084741,0.453846103,-3.124589818,-2.668065363,4.133716318,5.44582796,0.761748477
1.64617E+18,11.15082959,0.397299455,-3.225360223,-3.021784693,4.43756444,5.671057154,0.667654668
1.64617E+18,11.16081128,0.220698076,-3.273106894,-3.45883171,4.767122106,5.858848112,0.547607701
1.64617E+18,11.17079468,0.043369113,-3.271720992,-3.923818873,5.109050174,5.998123317,0.412736856
1.64617E+18,11.18077637,-0.149114895,-3.296931421,-4.356114312,5.465137139,6.081942317,0.290757445
1.64617E+18,11.19075952,-0.290130801,-3.27860666,-4.701830952,5.739394726,6.115133109,0.231322383
1.64617E+18,11.20074146,-0.437958944,-3.386029508,-4.870021865,5.947614382,6.106064115,0.24711415
1.64617E+18,11.21072339,-0.46305225,-3.506600592,-5.023107564,6.143474155,6.063115082,0.302121672
1.64617E+18,11.2207063,-0.4008193,-3.608976679,-5.174675259,6.321600494,5.995056615,0.349323442
1.64617E+18,11.23068848,-0.288155336,-3.717301444,-5.193922396,6.393605663,5.921931893,0.349850012
1.64617E+18,11.24067041,-0.122138187,-3.714015847,-5.19348342,6.386008258,5.869356871,0.312531134
1.64617E+18,11.25065356,0.157876878,-3.659322718,-5.144865811,6.315474019,5.831285342,0.267172725
1.64617E+18,11.2606355,0.427762325,-3.574080722,-4.998701437,6.15987416,5.80910171,0.23308402
1.64617E+18,11.27061743,0.636789837,-3.359261913,-4.866161098,5.947240178,5.827877868,0.265844644
1.64617E+18,11.28060059,0.834233294,-3.0976796,-4.828474634,5.797045056,5.912895718,0.394995622
1.64617E+18,11.29058228,0.960586834,-2.663085821,-4.888058165,5.648704788,6.045541716,0.532580451
1.64617E+18,11.30056445,1.017075248,-2.133939782,-4.98613597,5.518124044,6.192118743,0.60055891
1.64617E+18,11.31054761,1.007051867,-1.473600142,-5.163091204,5.462889494,6.336376521,0.594563545
1.64617E+18,11.32052954,0.903605302,-0.745930595,-5.466181001,5.590353275,6.465054166,0.52700164
1.64617E+18,11.33051147,0.731002929,-0.166312844,-5.819768229,5.867855442,6.557016403,0.439278163
1.64617E+18,11.34049438,0.509707691,-0.023856676,-5.983575228,6.005292964,6.601586334,0.386538355
1.64617E+18,11.35047656,0.25133506,-0.179814131,-6.085796416,6.093637703,6.616516817,0.365530133
1.64617E+18,11.36045825,0.05993819,-0.34425066,-6.338010597,6.347635736,6.597374711,0.396141484
1.64617E+18,11.37044165,0.055651306,-0.220900759,-6.793600402,6.797418675,6.508029155,0.522874616
1.64617E+18,11.38042358,0.029649288,-0.06676409,-7.123130463,7.123505044,6.319285736,0.696257019
1.64617E+18,11.39040552,-0.131213474,-0.181385326,-7.110951949,7.11447505,6.037098014,0.864616331
1.64617E+18,11.40038843,-0.409447135,-0.462170352,-6.933261971,6.960701829,5.692630867,1.035971982
1.64617E+18,11.41037061,-0.588791238,-0.833539321,-6.672070703,6.749665946,5.310795536,1.190392095
1.64617E+18,11.42035229,-0.843019754,-1.397958333,-6.301968978,6.509975638,4.921047703,1.289407015
1.64617E+18,11.43033545,-0.977331194,-2.085890913,-5.878337907,6.313554761,4.553768195,1.307462139
1.64617E+18,11.44031714,-0.778826172,-2.729106984,-5.461179248,6.154597786,4.209175341,1.25113373
1.64617E+18,11.45029956,-0.41584407,-3.14147198,-4.979396432,5.902216645,3.883506396,1.119263425
1.64617E+18,11.46028247,0.026001799,-3.07415084,-4.505219416,5.454180183,3.581162885,0.924536161
1.64617E+18,11.4702644,0.389922789,-2.628157716,-4.129006515,4.909984476,3.308743112,0.70865084
1.64617E+18,11.48024658,0.711823743,-1.900426794,-3.792846807,4.301627824,3.074858388,0.495472301
1.64617E+18,11.49022925,0.933437107,-1.160487548,-3.354015829,3.669803587,2.888639788,0.317324015
1.64617E+18,11.50021143,0.975157869,-0.392893402,-2.961259205,3.142348512,2.753859721,0.231548936
1.64617E+18,11.51019336,0.886454407,0.479171171,-2.668251826,2.852187622,2.663184985,0.239081248
1.64617E+18,11.52017651,0.676116397,1.315508014,-2.421135844,2.837180553,2.586190877,0.285321744
1.64617E+18,11.53015845,0.394745095,1.8697996,-2.138061245,2.867626218,2.488877842,0.34320228
1.64617E+18,11.54014014,0.12608371,2.156305927,-1.931921418,2.897908335,2.362532112,0.407124693
1.64617E+18,11.55012305,-0.07510171,2.283254145,-1.751711566,2.878781542,2.219425455,0.443660174
1.64617E+18,11.56010522,-0.263496623,2.226190195,-1.558027899,2.729982453,2.087630892,0.423513302
1.64617E+18,11.57008716,-0.434789593,2.074614317,-1.455225112,2.571137235,1.995461994,0.370688276
1.64617E+18,11.58007031,-0.613392595,1.902906336,-1.397702897,2.439441819,1.952329087,0.323253359
1.64617E+18,11.59005225,-0.799464471,1.715596881,-1.345095343,2.322002924,1.962364595,0.339375874
1.64617E+18,11.60003418,-0.866379587,1.577270945,-1.326467215,2.235601148,2.025258424,0.44273553
1.64617E+18,11.61001733,-0.847623449,1.438285668,-1.244435413,2.082246544,2.135508365,0.5931195
1.64617E+18,11.61999902,-0.892173296,1.310328565,-0.98068803,1.864050201,2.298126261,0.756617019
1.64617E+18,11.62998218,-0.992860552,1.13879711,-0.539191048,1.604168919,2.518057264,0.903804492
1.64617E+18,11.63996411,-1.060277115,1.011335097,-0.068106737,1.466841766,2.796500267,1.002848684
1.64617E+18,11.64994629,-1.182087824,0.955033949,0.35607203,1.560835916,3.120242378,1.043097873
1.64617E+18,11.6599292,-1.282504154,0.965189432,0.832777104,1.808293464,3.464909507,1.040317137
1.64617E+18,11.66991113,-1.344723002,1.059915296,1.283385613,2.139808174,3.818327964,1.017567602
1.64617E+18,11.67989331,-1.332250474,1.241429801,1.770460105,2.539796894,4.17348619,0.989140988
1.64617E+18,11.68987622,-1.278635788,1.412727156,2.253296813,2.95094121,4.517616214,0.959075639
1.64617E+18,11.69985815,-1.190363631,1.556325479,2.702554493,3.338100561,4.847738705,0.930733314
1.64617E+18,11.70984009,-1.026102531,1.724481613,3.118604899,3.708425509,5.165325786,0.902848461
1.64617E+18,11.71982324,-0.805200092,1.866660133,3.518256543,4.063360228,5.464727277,0.865742681
1.64617E+18,11.72980518,-0.646584159,2.029170663,3.837212018,4.388598948,5.743278006,0.816774964
1.64617E+18,11.73978735,-0.476231026,2.239847842,4.109303451,4.704262875,5.987628326,0.736513767
1.64617E+18,11.74977002,-0.321316432,2.465566522,4.34659245,5.007507209,6.181719533,0.619124543
1.64617E+18,11.7597522,-0.281526785,2.768765333,4.560345675,5.342478028,6.31985128,0.480256823
1.64617E+18,11.76973413,-0.332559199,3.058805387,4.788009937,5.691390443,6.40233554,0.361446643
1.64617E+18,11.77971729,-0.375207962,3.31461087,4.964483525,5.981097133,6.438916282,0.301119964
1.64617E+18,11.78969946,-0.443356346,3.546485443,5.129859381,6.252166114,6.446234022,0.290611036
1.64617E+18,11.79968115,-0.454964951,3.841966812,5.240622187,6.513971369,6.41833621,0.319824179
1.64617E+18,11.80966431,-0.423364529,4.129832444,5.26193444,6.702440421,6.358690732,0.350567173
1.64617E+18,11.819646,-0.41477571,4.367510443,5.259258499,6.84886752,6.281224337,0.351637065
1.64617E+18,11.82962817,-0.374762922,4.543286404,5.088783859,6.832102148,6.199913936,0.301397525
1.64617E+18,11.83961108,-0.267523978,4.733390458,4.656371516,6.645174941,6.155341909,0.228833211
1.64617E+18,11.84959326,-0.192274968,4.899382692,4.095871138,6.388824681,6.161825708,0.243094536
1.64617E+18,11.85957544,-0.054258975,5.049218741,3.54094476,6.167320628,6.221008149,0.342763346
1.64617E+18,11.86955835,0.235433581,5.257492658,2.998831103,6.057197867,6.30863477,0.420931849
1.64617E+18,11.87954028,0.466794213,5.484373661,2.521505267,6.054274531,6.364122006,0.420701847
1.64617E+18,11.88952222,0.572457358,5.512070646,2.228978365,5.973187991,6.332813365,0.453005441
1.64617E+18,11.89950513,0.635729514,5.453325027,2.20773567,5.917516595,6.215349671,0.643334481
1.64617E+18,11.90948706,0.577893411,5.469734894,2.210559495,5.927776471,6.018489605,0.938044296
1.64617E+18,11.91946924,0.529062599,5.621491975,2.132923298,6.035763502,5.762420045,1.231474492
1.64617E+18,11.92945215,0.633802784,6.04544687,1.95875974,6.386381883,5.460764788,1.473289342
1.64617E+18,11.93943433,0.674767393,6.474687013,1.627080393,6.710012932,5.105882664,1.626986006
1.64617E+18,11.94941626,0.782532187,6.820338187,1.264947455,6.980649087,4.710793058,1.668650726
1.64617E+18,11.95939917,0.870803176,6.913648923,1.027266241,7.043586837,4.298340904,1.563020231
1.64617E+18,11.96938135,0.728650886,6.484281355,1.068941483,6.612070228,3.907197405,1.293213506
1.64617E+18,11.97936304,0.382418551,5.567217364,1.349476919,5.741188124,3.589015942,0.928587841
1.64617E+18,11.98934644,-0.017243469,4.519769919,1.611668304,4.79855105,3.368115565,0.592129104
1.64617E+18,11.99932813,-0.516221822,3.504105268,1.746052225,3.948915936,3.24217311,0.364781139
1.64617E+18,12.00931128,-0.826638894,2.779883816,1.710598634,3.367080869,3.171255564,0.279442357
1.64617E+18,12.01929321,-0.964098568,2.436770928,1.499431918,3.019210937,3.097218043,0.313727878
1.64617E+18,12.02927515,-0.851071909,2.40887579,1.234805415,2.837560638,2.970330334,0.512957975
1.64617E+18,12.03925806,-0.479159335,2.537266315,0.972322937,2.759116873,2.778875192,0.802409129
1.64617E+18,12.04924023,-0.007816081,2.761012819,0.730897861,2.856127546,2.539935228,1.080339424
1.64617E+18,12.05922217,0.590029182,3.049135933,0.406215241,3.132151848,2.31539668,1.216098917
1.64617E+18,12.06920532,1.148818007,3.232051245,0.026747137,3.430255599,2.095839465,1.246633841
1.64617E+18,12.07918701,1.553445248,3.15973712,-0.281416895,3.532184348,1.872333498,1.186250502
1.64617E+18,12.08916919,1.852968146,2.959542464,-0.577090863,3.539126504,1.657518444,1.053270107
1.64617E+18,12.0991521,1.896466074,2.521222943,-0.736729052,3.239740482,1.454300984,0.846346691
1.64617E+18,12.10913403,1.704455309,1.888727588,-0.653546326,2.626705656,1.287509043,0.60916734
1.64617E+18,12.11911646,1.254057812,1.112718666,-0.502856583,1.750333845,1.183110741,0.435380514
1.64617E+18,12.12909912,0.679704265,0.473496048,-0.407123588,0.923009215,1.172712994,0.42276888
1.64617E+18,12.1390813,0.052651394,-0.038693596,-0.36389761,0.369717235,1.252861901,0.443307096
1.64617E+18,12.14906299,-0.401058004,-0.365256038,-0.280617853,0.61074207,1.41111157,0.377350101
1.64617E+18,12.15904614,-0.736702164,-0.564767388,-0.124455816,0.936579698,1.571541495,0.34238357
1.64617E+18,12.16902808,-1.019643492,-0.622581863,0.034817631,1.195195923,1.719046339,0.354578252
1.64617E+18,12.17901001,-1.193126227,-0.652253948,0.258000363,1.384033813,1.861644356,0.399165913
1.64617E+18,12.18899316,-1.224513738,-0.732912708,0.484054852,1.506951901,2.002730525,0.45134544
1.64617E+18,12.19897534,-1.179258884,-0.849770324,0.598214315,1.571821073,2.15164676,0.505606706
1.64617E+18,12.20895728,-1.15042778,-0.951834861,0.524916439,1.582722637,2.315380978,0.55411513
1.64617E+18,12.21894019,-1.148015166,-1.14212187,0.296830152,1.646356379,2.496048728,0.579720304
1.64617E+18,12.22892212,-1.092282027,-1.334463474,-0.00463935,1.724498279,2.687472407,0.583575519
1.64617E+18,12.23890405,-1.106578263,-1.571789298,-0.340737683,1.952213928,2.883702242,0.556046051
1.64617E+18,12.24888745,-1.105246722,-1.82186296,-0.604692571,2.215041324,3.074235752,0.53005179
1.64617E+18,12.25886914,-1.083066601,-1.966917328,-0.879859758,2.411628128,3.261693675,0.524493613
