time,seconds_elapsed,z,y,x
1646167729567713000,0.015713134765625,-2.2206430825829506,-0.669990388135612,0.11668678966388106
1646167729577695000,0.025695068359375,-2.8209067312806844,-0.49571021828949446,0.4786886486008763
1646167729587677000,0.035677001953125,-3.061237582400441,-0.3825418120101094,0.738639926796034
1646167729597659000,0.045658935546875,-2.825606871795654,-0.48915875081941484,0.6426677891850471
1646167729607641000,0.05564111328125,-2.5222499479204417,-0.4925017776370048,0.5711786431845277
1646167729617622800,0.065622802734375,-2.262108480915427,-0.4898781511351466,0.7326292151391506
1646167729627605000,0.07560498046875,-1.8339602252453564,-0.494571569648385,0.8524250767342746
1646167729637587000,0.0855869140625,-0.9618225861728191,-0.10043883469626307,0.8305386774882674
1646167729647569000,0.09556884765625,0.21873861251473425,-0.5748382616706192,0.6162665428631008
1646167729657551000,0.105551025390625,1.1072194836229086,-1.2915566448420286,0.952172275904566
1646167729667532800,0.11553271484375,2.066646699091792,-1.283522975990176,1.4738802742816508
1646167729677514000,0.125513916015625,2.1550877836108207,-1.188135433334112,1.8451833377882838
1646167729687496000,0.135495849609375,1.4994944618791342,-1.013242684547603,2.0800249438419938
1646167729697478100,0.14547802734375,0.6848866362333297,-0.8692536080688238,2.1725486214995384
1646167729707459800,0.1554599609375,-0.01462707576751709,-0.5087023863315582,2.5385712603852153
1646167729717442000,0.165442138671875,-0.06922843452692032,-0.09304507118314503,2.6269384028851985
1646167729727424000,0.175424072265625,0.64822016261518,0.2090007700935006,2.504772451157868
1646167729737406000,0.185406005859375,1.5256681830555199,0.21129501851052043,2.194435751397908
1646167729747388000,0.195387939453125,2.0995412529557944,0.03324672830253839,1.884211572101712
1646167729757370000,0.2053701171875,2.0927701513856647,-0.1611012470602989,1.7535770672366022
1646167729767351800,0.215351806640625,1.5247434694260358,-0.4785851882264018,1.8694985716164112
1646167729777334000,0.225333984375,1.2134247728914023,-0.6284378960415721,1.9546730555549263
1646167729787315000,0.23531494140625,1.0619313121318816,-0.5333094427131116,1.4689303967893124
1646167729797297000,0.245296875,1.0997937175363302,-0.24379385105520485,0.6829772954806685
1646167729807278800,0.25527880859375,1.2679238403201103,0.07564736165851355,0.7429822668492794
1646167729817261000,0.265260986328125,0.4293476945877075,0.18963059145212172,1.0033300700813532
1646167729827242800,0.27524267578125,1.1055693783283234,-0.06961348832175135,0.6613970395743847
1646167729837225000,0.285224853515625,1.9186521863639354,-0.4297705961748957,0.2752233008027077
1646167729847207200,0.295207275390625,2.6748949168026446,-0.9167094789877533,0.09020371027737856
1646167729857188900,0.30518896484375,2.5178099196463823,-1.5988756042160093,0.4946501878425479
1646167729867171000,0.315171142578125,1.6557909390062093,-2.39652849566862,1.2835986715748906
1646167729877153000,0.325153076171875,0.7144809795081615,-3.13908479219079,2.2346432586237786
1646167729887135000,0.335135009765625,-0.3862076410412788,-3.6564439477086066,2.93869023014009
1646167729897117000,0.345116943359375,-1.0358365014106035,-3.587850596214831,3.5933225978851318
1646167729907098000,0.35509814453125,-0.7412532510995864,-3.030207361103594,3.8621220031201835
1646167729917079800,0.365079833984375,0.3017085721462965,-2.097181684217602,2.7959996690392495
1646167729927062000,0.37506201171875,1.208415420296788,-0.705262338655442,1.2558844429582356
1646167729937044000,0.3850439453125,1.7013222716033458,0.3165551358833909,0.21989538133442402
1646167729947026000,0.39502587890625,2.198047804415226,0.2926461447685957,-0.06540273875892162
1646167729957008000,0.4050078125,2.014291657954454,-0.4856193246468901,0.21478432193100452
1646167729966990000,0.414989990234375,1.7037889539778233,-1.0405267050534486,0.5652648160308599
1646167729976971800,0.4249716796875,1.2264058350175617,-0.9974183618195355,0.47660161319375033
1646167729986952700,0.43495263671875,-0.17985738545656202,-0.9073591745793819,-0.10843465575575828
1646167729996935000,0.444934814453125,-0.9486433711260557,-0.7588625575482845,-0.5060901580065489
1646167730006916900,0.454916748046875,-1.1732990987300873,-0.23293825665041804,-0.06319558410346508
1646167730016897800,0.464897705078125,-1.4957535217851399,0.04098229099065065,0.8917734829127788
1646167730026879700,0.474879638671875,-1.3800047436237335,-0.298119315482676,1.6397013894706964
1646167730036862000,0.484862060546875,-0.9752052148371935,-0.19324542094841599,1.195427928429842
1646167730046843600,0.49484375,-0.5775964743375778,0.6509162698313593,0.4482528860658407
1646167730056825900,0.504825927734375,-0.0578092148900032,1.4680048063769935,0.5363245527505874
1646167730066807800,0.514807861328125,-0.23175883760750293,1.7379501667767763,0.9377706794559955
1646167730076789800,0.524789794921875,-0.7263660630911588,1.7592955910138786,1.2822843741059302
1646167730086771700,0.534771728515625,-1.126603398528695,2.3122006916873157,0.9257026405215263
1646167730096754000,0.54475390625,-1.7718945219546556,2.491197222530842,0.19580197356343268
1646167730106735600,0.554735595703125,-1.9893360803961753,2.2609461591377853,-0.11742927859425543
1646167730116717800,0.5647177734375,-1.8581454029530287,2.87660348406136,0.13619476934075356
1646167730126699800,0.57469970703125,-1.1798822765126824,2.7239035701215264,0.2710603359043598
1646167730136681700,0.584681640625,-0.9137868695393204,2.3615957139752806,0.055364744347333905
1646167730146662700,0.59466259765625,-0.9037368924289941,2.3604142491057516,-0.2267757884979248
1646167730156644900,0.604644775390625,-1.5270269041880964,2.589424664787948,-0.1603834541797638
1646167730166626800,0.614626708984375,-1.700556401797384,3.044512073048949,-0.05253507387936115
1646167730176608800,0.62460888671875,-0.2385150338694453,3.247961638756096,-0.5244184263795614
1646167730186591000,0.634591064453125,1.5706376439861953,2.6954154345229266,-0.803162887045741
1646167730196572700,0.64457275390625,1.9465414792865514,1.7019212604098022,-1.2972551487445831
1646167730206555000,0.654554931640625,1.8516461040616035,1.4047823342666028,-2.179634780368209
1646167730216536800,0.664536865234375,1.2756617410957813,1.7596993495091795,-2.5257325293391943
1646167730226518800,0.674518798828125,0.3851989023901522,2.3694540262602266,-2.6291110707491634
1646167730236500700,0.684500732421875,-0.7113919274516404,3.307231281587481,-2.4000118077397343
1646167730246483000,0.69448291015625,-1.1274683447949587,4.521790611466765,-2.019739986488223
1646167730256464600,0.704464599609375,-0.6306389132171869,4.732540563315153,-0.7102694992929697
1646167730266446800,0.71444677734375,-0.5606085146576166,3.1994974675774572,1.1893296115547418
1646167730276428800,0.7244287109375,-0.3781564365327358,2.5432167481034993,2.208599593567848
1646167730286409700,0.73440966796875,-0.07404840202927589,2.8820301852852106,2.136056919926405
1646167730296391700,0.7443916015625,-0.09266893134713172,3.291650850617885,1.5405594627171755
1646167730306374000,0.754373779296875,0.6874426043264568,2.6374419689819217,1.5103338358014822
1646167730316355600,0.76435546875,2.11012402176857,1.967879743130505,1.5262766703426838
1646167730326337800,0.774337890625,2.952125465774536,2.2408190246492623,1.6431740340173244
1646167730336319700,0.78431982421875,3.286411196398735,2.864043277695775,1.2822037100851535
1646167730346301700,0.7943017578125,3.583163607442379,2.1953135571457443,0.93807930701375
1646167730356284000,0.804283935546875,3.0582915920764204,1.8330435487918555,1.2334434785693884
1646167730366265900,0.814265869140625,2.8823826519846913,3.755615392817557,0.09029460343122482
1646167730376247800,0.824247802734375,2.561388364610076,4.374749161680042,-0.22477847720086575
1646167730386229800,0.834229736328125,1.987045192980021,6.216964297312498,0.4712789568662643
1646167730396212000,0.8442119140625,2.1092938545547426,5.299800937077403,-0.7249667176872492
1646167730406193700,0.854193603515625,1.0765881985157728,4.069362777803838,-0.48785249052643775
1646167730416175900,0.86417578125,-0.3360780208684504,3.6436294743210076,-0.9819669640570878
1646167730426157800,0.87415771484375,-0.44887320992127056,2.765024100539088,-1.1422574792563915
1646167730436139800,0.884139892578125,-0.47412674751281736,1.6492296807944773,-0.34826457161605356
1646167730446120700,0.89412060546875,-1.2006896483503282,1.0770698445528746,0.3007125468462705
1646167730456103000,0.90410302734375,-1.5831984348736703,0.8398153321385383,0.1581178473353386
1646167730466084600,0.914084716796875,-2.1253432182103396,-0.13007307159006595,-0.19415654444396493
1646167730476066800,0.92406689453125,-2.2108897503316403,-1.019395654219389,-0.7096259406924247
1646167730486048800,0.934048828125,-1.5250421601116657,0.28549861110150815,-1.5338894834339618
1646167730496030700,0.94403076171875,-1.4012532833576201,2.5338386789053677,-2.470225161650777
1646167730506013000,0.954012939453125,-1.7454764706283807,2.429179450035095,-2.1962281877726317
1646167730515995000,0.963994873046875,-2.0633330444991587,1.3081617426842451,-1.4951140548378228
1646167730525976800,0.973976806640625,-2.7242671427369114,0.5962637654066085,-1.5091618694126605
1646167730535958800,0.983958740234375,-3.632120822834968,0.2827770771831274,-2.095692176312208
1646167730545941000,0.99394091796875,-4.558595032250881,-0.1346411101579666,-3.0546120267808434
1646167730555922700,1.003922607421875,-4.244091860461235,-0.6009779344469308,-2.822037196615338
1646167730565905000,1.01390478515625,-3.388533015745878,-0.9280629399120807,-3.089347240075469
1646167730575886800,1.023886962890625,-3.354965092664957,-1.1662930193603038,-3.707206751218438
1646167730585868800,1.033868896484375,-3.527912260341644,-1.4441478377103805,-4.320530957019328
1646167730595850800,1.043850830078125,-3.285910845661163,-1.3255927699565886,-4.976591311740875
1646167730605832700,1.053832763671875,-2.8307027336299417,-1.347310096246004,-5.599553698980808
1646167730615814700,1.063814697265625,-2.3833868361532686,-1.9909411775052546,-5.6712540765792125
1646167730625796900,1.073796875,-1.952014357739687,-3.067309595790505,-5.4915317156791685
1646167730635777800,1.08377783203125,-1.7352876695692538,-3.6641520378679036,-5.549650727170706
1646167730645759700,1.093759765625,-1.531298882418871,-3.9156051715046165,-5.672335442075133
1646167730655741700,1.10374169921875,-1.3384300396978854,-3.8382600660175084,-6.067223817700147
1646167730665724000,1.113723876953125,-1.4532546887516975,-3.5839375144243237,-6.722032711055874
1646167730675705900,1.123705810546875,-2.1768951262712477,-3.76263111679852,-7.246229019117355
1646167730685687800,1.133687744140625,-2.6566648481070994,-3.5558395471870896,-7.801079408639669
1646167730695670000,1.143669921875,-2.894380548292398,-3.681692955255508,-8.157751158595085
1646167730705651700,1.153651611328125,-2.494124508154392,-3.2009184402912854,-8.876523697817325
1646167730715634000,1.163634033203125,-2.709745280909538,-2.2414286809802055,-8.714083895629644
1646167730725615600,1.17361572265625,-3.091836718803644,-2.227099126854539,-8.41753723629117
1646167730735597800,1.183597900390625,-3.206572520530224,-2.425698037660122,-8.83255479223132
1646167730745579800,1.193579833984375,-3.595300619959831,-2.7096453276664016,-8.67018863980174
1646167730755561700,1.203561767578125,-4.282099811816216,-2.834950454202294,-8.526525434276461
1646167730765543700,1.213543701171875,-5.62327359726429,-2.5308400816112755,-8.905355824548005
1646167730775526000,1.22352587890625,-5.795819782924652,-2.1422177806437013,-9.125887750220299
1646167730785507800,1.2335078125,-4.871073420214652,-1.4427058222085236,-8.743191916692256
1646167730795489800,1.24348974609375,-4.251515288460254,-1.154108660569787,-7.991601980495452
1646167730805472000,1.253471923828125,-3.5789392677456138,-2.031412888625264,-7.2225354243189095
1646167730815453700,1.26345361328125,-2.9828970361351965,-3.9093636467665434,-6.12134119233489
1646167730825436000,1.273435791015625,-2.5173574997037647,-5.511436439588666,-5.216735115855932
1646167730835417900,1.28341796875,-2.158078782120347,-6.18639263343811,-4.424275993654132
1646167730845399800,1.29339990234375,-1.825726211515814,-6.463989093112946,-3.6150095290362834
1646167730855381800,1.3033818359375,-1.574766268223524,-6.3132654476821415,-3.0079315241485833
1646167730865363700,1.31336376953125,-1.3626419592820107,-5.5537067245632405,-2.8416958368092775
1646167730875344600,1.3233447265625,-1.4077787396036088,-4.414131031736731,-3.1310686589956283
1646167730885326800,1.333326904296875,-1.5118376644931732,-3.4046102903217075,-3.398354737058282
1646167730895308800,1.343308837890625,-1.6287503718674181,-2.264458843433857,-3.79114701718688
1646167730905290800,1.353290771484375,-1.834740561968088,-1.228585517144203,-4.015556076553464
1646167730915272700,1.363272705078125,-2.1864617037788032,-0.7945780140519142,-3.264083044734597
1646167730925255000,1.3732548828125,-2.7216116597920657,-0.2863631189763546,-2.727138314259052
1646167730935236600,1.383236572265625,-3.332674642662704,0.33194472045600415,-2.3391624945014713
1646167730945218800,1.39321875,-3.740900054244697,0.9127893829345702,-2.296969366416335
1646167730955201000,1.403200927734375,-3.8570664732962845,1.2483102083116768,-2.4869804816186427
1646167730965182700,1.4131826171875,-3.8933576838612556,1.4394067806631325,-2.820403457933664
1646167730975165000,1.4231650390625,-3.8769364181533454,1.606967579126358,-3.1904888162136076
1646167730985147000,1.43314697265625,-4.280633246394991,2.318141333782673,-3.5962007836699486
1646167730995129300,1.44312939453125,-5.2241176273226735,3.997870782259106,-4.166270954155921
1646167731005111600,1.453111572265625,-6.102730599889159,5.1064340817064044,-4.220581805536151
1646167731015093200,1.46309326171875,-6.54816609044671,4.484587546753883,-3.366259224617481
1646167731025075500,1.473075439453125,-6.020583647078276,3.68808704020679,-2.55613994256258
1646167731035057400,1.483057373046875,-5.051349323344231,3.6236543155238032,-2.235627885746956
1646167731045039400,1.493039306640625,-3.9758500891089437,3.4577237486109134,-2.2072341504335404
1646167731055021600,1.503021484375,-3.0256080506145953,3.2153377185270187,-2.1764462134599682
1646167731065003500,1.51300341796875,-2.2080168252438304,2.977502483615279,-1.9259183779746294
1646167731074985500,1.5229853515625,-1.592129783217609,2.9731600704967973,-1.580982073998451
1646167731084967400,1.532967529296875,-1.288277915432304,3.7702304858863354,-1.3975456610113381
1646167731094949400,1.542949462890625,-1.1746119348943234,4.637500518922508,-1.187674830085039
1646167731104931300,1.552931396484375,-1.0244827482253311,5.396733371087908,-0.9452706798225641
1646167731114913500,1.56291357421875,-0.8707342020153999,5.852773842290043,-0.4087865525960922
1646167731124895200,1.572895263671875,-0.9662811730168759,5.941022034585475,0.39749066707789893
1646167731134877400,1.58287744140625,-1.1120774450480937,5.408275924843549,1.3376748374164105
1646167731144859400,1.592859375,-1.1274772587537765,4.857575932998955,2.0930781944215298
1646167731154841300,1.60284130859375,-0.8609880301572382,4.6764957277491686,2.8081998099207874
1646167731164823600,1.612823486328125,-0.5444833092868328,4.599437330248952,3.428037343138456
1646167731174805500,1.622805419921875,-0.45118601690828797,4.77667079694271,3.737555712252855
1646167731184787500,1.632787353515625,-0.4464684868671,5.251214308562875,3.708742874744534
1646167731194769400,1.642769287109375,-0.6315238793581723,5.943935876205563,3.7813510148376226
1646167731204751600,1.652751708984375,-1.0088111318409443,6.743039843249321,3.8837580808669325
1646167731214733300,1.6627333984375,-1.31975281175673,7.412498024204373,3.97001948325932
1646167731224715500,1.672715576171875,-1.232505905458331,7.753751840275526,4.417538209831714
1646167731234697200,1.682697265625,-1.1728221288681029,7.664228805738687,4.660748415780067
1646167731244679400,1.692679443359375,-1.0762637888669968,7.603755340075493,4.893155488163233
1646167731254661400,1.702661376953125,-0.7958885121285915,7.702199347692727,5.078550049480795
1646167731264643300,1.712643310546875,-0.4772697217136621,7.766196895828843,5.37785799022615
1646167731274625500,1.72262548828125,-0.1603653340011835,7.8394106005996465,5.650974674138427
1646167731284607500,1.732607421875,0.09036709327870047,8.031465204328297,5.839565985670686
1646167731294589400,1.74258935546875,0.4288093499273061,8.239231756451726,6.053643036115169
1646167731304571400,1.7525712890625,0.5829220532745123,8.475196229055523,6.0362979335606095
1646167731314553600,1.7625537109375,0.5772241338938474,8.774466175878047,5.572027978673577
1646167731324535300,1.772535400390625,0.6694850689619779,9.259172769594192,5.016396667906641
1646167731334516500,1.7825166015625,0.9143021255850792,9.479911616015434,4.8535114600390195
1646167731344498400,1.79249853515625,1.1718424701809882,8.87940539073348,5.120534503251314
1646167731354480400,1.80248046875,1.4379039748847484,8.260756775039434,5.206708227360248
1646167731364462300,1.81246240234375,1.879800769922137,8.138237479829789,5.144287719282508
1646167731374444500,1.822444580078125,2.4045155488997696,8.120316038691998,5.0582437590330835
1646167731384426200,1.83242626953125,2.8192081106692553,7.9375968340635294,5.041884744906425
1646167731394408400,1.842408447265625,2.6388369304716583,8.143444985345006,4.828028059214353
1646167731404390400,1.852390380859375,2.037082750955224,8.400572072964906,4.287632311502099
1646167731414372400,1.862372314453125,1.4549967101134358,8.45673878134489,3.880820273849368
1646167731424354300,1.872354248046875,0.7726118275679648,8.288338609448076,3.793964997217059
1646167731434336500,1.88233642578125,-0.01692833844721317,8.209054644852877,3.611104338291287
1646167731444318500,1.892318359375,-0.6088584585636854,8.024246943512559,3.609760522466898
1646167731454300400,1.902300537109375,-1.0991897602938114,8.077217486199736,3.419578142350912
1646167731464282600,1.91228271484375,-1.2236030525565147,8.229939027449488,3.0387521943479774
1646167731474264300,1.922264404296875,-1.1858429384827613,8.345169919216632,2.59677882694304
1646167731484246500,1.93224658203125,-1.2716685798063874,8.404398937776683,1.8938439083218574
1646167731494228500,1.942228515625,-1.4592828630000352,8.06807147219181,1.0972691674947739
1646167731504210400,1.95221044921875,-1.6814283613488077,8.005255242794751,0.17630933758616446
1646167731514192400,1.9621923828125,-1.8129037009522317,8.258074988609552,-0.8484282621830701
1646167731524174300,1.97217431640625,-1.8788263719320295,8.108201238006354,-1.6340800424575805
1646167731534156300,1.98215625,-1.999439979650825,7.566445307856798,-2.025474146226048
1646167731544138500,1.992138427734375,-2.1169062292546035,6.983897348591685,-2.239309204608202
1646167731554120400,2.002120361328125,-2.311000814378261,6.595930881184339,-2.433090485998988
1646167731564102400,2.012102294921875,-2.4264929874300956,5.818636594888567,-2.5473002180248496
1646167731574085400,2.02208544921875,-2.3054363121189176,4.78234182831645,-2.560212891089916
1646167731584067300,2.0320673828125,-2.0909892593182624,3.7371991539001463,-2.445348494547605
1646167731594049500,2.042049560546875,-2.0410855568557977,2.641218272650242,-2.3300275864094493
1646167731604031200,2.05203125,-2.0599895792901517,1.5934937650471925,-2.307555057838559
1646167731614012400,2.062012451171875,-2.1259039208330215,0.9382797980219125,-2.4331308180093765
1646167731623995600,2.07199560546875,-2.2368834387660024,0.5942156007051468,-2.6000334448248146
1646167731633977300,2.081977294921875,-2.4415303975641724,0.3820154500484466,-2.9457834032714367
1646167731643959600,2.09195947265625,-2.7531974691450594,0.17053659940361976,-3.449764606299996
1646167731653941500,2.10194140625,-2.974997222796082,0.29580607010424137,-4.074542518529296
1646167731663923500,2.11192333984375,-2.8686206686139104,0.0851975725531578,-4.697308506414294
1646167731673905400,2.121905517578125,-2.676920869672298,-0.7056272264450788,-5.0026218250542875
1646167731683887400,2.131887451171875,-2.4836200652748346,-1.4156518110662697,-5.165355641752481
1646167731693869300,2.141869384765625,-2.523233698260784,-1.8695313048422335,-5.250726232784986
1646167731703851500,2.1518515625,-2.6990263184964656,-2.167200830730796,-5.304186020293831
1646167731713833200,2.161833251953125,-2.904479332980513,-2.17791687053442,-5.419482378512621
1646167731723815400,2.1718154296875,-3.2319249884516,-1.9338976862907409,-5.717381621503829
1646167731733797400,2.18179736328125,-3.6268811686158178,-1.5782365746825933,-6.22594956780076
1646167731743779300,2.191779296875,-4.242155339440703,-0.9137824856251477,-6.646870794826746
1646167731753761500,2.201761474609375,-5.042069453823566,-0.2529962714254856,-7.263717329534888
1646167731763743500,2.211743408203125,-5.512088181495666,-0.10801847617030143,-8.111895416349173
1646167731773725400,2.221725341796875,-5.353159017777442,-0.6883055047661065,-8.900116170328856
1646167731783707400,2.231707275390625,-4.697131396281719,-1.5648188747048377,-9.364221874564885
1646167731793689600,2.241689697265625,-3.948620721399784,-2.3860464107513426,-9.553301846396922
1646167731803671300,2.25167138671875,-3.401373792618513,-3.1298774033844468,-9.522229247263073
1646167731813653500,2.261653564453125,-3.0892952176272868,-3.8326048167347904,-9.480061838141083
1646167731823635500,2.271635498046875,-2.835020012307167,-4.242767333859205,-9.582354337880014
1646167731833617400,2.281617431640625,-2.6752865464687345,-4.342948540532588,-9.952151526868343
1646167731843599400,2.291599365234375,-2.7013258276104923,-4.200782880088687,-10.506710824489593
1646167731853581300,2.301581298828125,-2.725051571112871,-3.83918945582211,-10.880161859810352
1646167731863563500,2.3115634765625,-2.892038953602314,-3.698934012913704,-11.05888761088848
1646167731873545500,2.32154541015625,-3.217256411629915,-3.828461725580692,-11.15228719459772
1646167731883527400,2.33152734375,-3.5675054350614546,-4.269213442236185,-11.118827992588281
1646167731893509400,2.34150927734375,-3.615131109589338,-4.7240281710356475,-10.874108551120758
1646167731903491600,2.35149169921875,-3.2862779254078864,-4.7428532830148935,-10.74200543500781
1646167731913473300,2.361473388671875,-2.9371780720114704,-4.396681299763918,-10.637849479484558
1646167731923455500,2.37145556640625,-2.7032991735100746,-4.196777151578664,-10.188906273066998
1646167731933437400,2.3814375,-2.6261212412834167,-4.064434966012835,-9.607122868433594
1646167731943419400,2.39141943359375,-2.8213538905262947,-3.858945126649737,-8.952180704087018
1646167731953401300,2.4014013671875,-3.1328081961393353,-3.6322190225124356,-8.2898390771389
1646167731963383600,2.411383544921875,-3.4379403129935264,-3.2886721270680424,-7.5737337112993
1646167731973365200,2.421365234375,-3.765834881275892,-2.858604301512241,-6.9270537638634435
1646167731983347500,2.431347412109375,-4.074773404675722,-2.3819600182205436,-6.273001826354861
1646167731993330000,2.441329833984375,-4.193299830856919,-1.8492659309267996,-5.558137985008955
1646167732003312000,2.45131201171875,-3.978645272785425,-1.2818722861737013,-4.886040103200077
1646167732013294000,2.461294189453125,-3.5409909376233815,-0.7106389171272516,-4.35316715220809
1646167732023276000,2.471276123046875,-3.2156548216521736,-0.20266952124536036,-3.9619226860433816
1646167732033258000,2.481258056640625,-2.984962736493349,0.2523164724677801,-3.622436464166641
1646167732043241000,2.491240966796875,-2.8109073153138158,0.9097188894480467,-3.4060198648586866
1646167732053223200,2.50122314453125,-2.6838509611964225,2.0781419065743685,-3.7518890657708046
1646167732063205000,2.511205078125,-2.308465158420801,2.674371769711375,-4.153786151114106
1646167732073187000,2.52118701171875,-2.1067717887312174,3.2094162195235487,-4.554508055198192
1646167732083169000,2.5311689453125,-1.9401894799113273,3.6901556631743904,-5.004736040729284
1646167732093151000,2.54115087890625,-1.9532792631089686,3.996571390098333,-5.207001072826981
1646167732103133000,2.5511328125,-2.469355393078923,4.436708189725875,-5.187723540905118
1646167732113115100,2.561115234375,-3.4297219352245327,5.163265975996851,-4.952290398699045
1646167732123096800,2.571096923828125,-4.300004886341095,4.92093138383925,-4.340190766257048
1646167732133079000,2.5810791015625,-4.710953000885248,4.147888325247168,-3.5498715786933897
1646167732143061200,2.591061279296875,-4.806988778316974,3.586430500283837,-2.8303993667691945
1646167732153043000,2.60104296875,-4.469768747806548,3.226384305459261,-2.2839111474007368
1646167732163025200,2.611025146484375,-3.74114584569931,2.844032170802355,-1.7574094850063322
1646167732173007000,2.621007080078125,-2.9890204874515534,2.562803492105007,-1.2696096014499663
1646167732182989000,2.630989013671875,-2.4241356106489897,2.5179642334252597,-0.7731219690471887
1646167732192971000,2.640970947265625,-2.251855966970324,2.6415473584741354,-0.3251572522729635
1646167732202953200,2.650953125,-2.2273311820447446,3.0306454602599144,0.063770169121027
1646167732212935000,2.660934814453125,-2.137884135353565,3.474844102498889,0.5412210926204919
1646167732222917000,2.670917236328125,-2.141819721236825,4.2160055836617945,0.9735305596232414
1646167732232899000,2.680899169921875,-2.2595266477286815,5.041908125782013,1.3665782758176326
1646167732242881000,2.690881103515625,-2.3376503363728522,5.3770636249780654,1.8561013299047946
1646167732252863000,2.700863037109375,-2.3611299961596726,5.775169793605804,2.1689649177938697
1646167732262845000,2.710844970703125,-2.1595102762281893,6.185660227510333,2.3276819000661373
1646167732272827100,2.7208271484375,-1.843396162110567,6.562651711916923,2.438020343616605
1646167732282809000,2.73080908203125,-1.4035095378518103,6.923419791275262,2.3863503621339794
1646167732292791000,2.740791015625,-1.2721347360134123,6.947797861206531,2.5221470720678565
1646167732302774000,2.75077392578125,-1.2231694103796034,6.761686091530323,2.812565019392967
1646167732312756000,2.760755859375,-1.3356149822771548,6.715900491911173,3.191299548074603
1646167732322738000,2.770738037109375,-1.6473779154479502,6.870137698420882,3.650702189186215
1646167732332720000,2.78072021484375,-2.0622402808263898,6.837761615473031,4.0766877138644455
1646167732342702000,2.7907021484375,-2.4191747733712194,6.7356514865636825,4.416585439151525
1646167732352684000,2.80068408203125,-2.5779426090478896,6.763868696266412,4.692798920035362
1646167732362666200,2.810666259765625,-2.6041420491874216,6.871607770973443,5.039522107428312
1646167732372648000,2.82064794921875,-2.5449580388128754,6.890602394300699,5.381973024329543
1646167732382630100,2.830630126953125,-2.3726491690397262,6.973496366086602,5.696239464753866
1646167732392612000,2.840612060546875,-2.1987796258211136,7.0067153295993805,6.029366088470816
1646167732402594000,2.850593994140625,-2.1312100644171235,7.1252113606423135,6.273702083578706
1646167732412576000,2.860575927734375,-2.033294464588165,7.293273094365,6.342993061947822
1646167732422558000,2.870557861328125,-1.9613235994853078,7.202531916210055,6.483405741244554
1646167732432540000,2.880539794921875,-2.035806739670038,7.036115611606836,6.519502306020259
1646167732442522000,2.890522216796875,-2.048010533813387,6.864784062433243,6.366110318163037
1646167732452504000,2.900504150390625,-1.829856297057867,6.904692878973484,6.110336983239651
1646167732462486000,2.910486083984375,-1.391422794216871,7.331500825950503,5.8170256525605915
1646167732472468200,2.92046826171875,-0.7610672279857099,7.713540825918316,5.555277334880828
1646167732482450000,2.930449951171875,-0.01863791884407401,8.054370863619447,5.438959232398867
1646167732492432100,2.94043212890625,0.6498703409750014,8.421623044300079,5.410284342056513
1646167732502414000,2.9504140625,1.0508042803745716,8.411669805562497,5.549808548080921
1646167732512396000,2.96039599609375,0.9933213017642497,7.949109577202797,5.689814984664321
1646167732522379300,2.970379150390625,0.6043957070011645,7.25058370719552,5.52884759311676
1646167732532361000,2.98036083984375,0.12140738844498991,6.418812565302848,5.065219443264604
1646167732542343200,2.99034326171875,-0.24953020275011656,5.7374710543304674,4.549698609089851
1646167732552325000,3.0003251953125,-0.41387313514538104,5.268667547667026,3.9558126787304877
1646167732562307000,3.01030712890625,-0.1873404346883297,5.154622650814056,3.4188024818032976
1646167732572289000,3.0202890625,0.6934696095310151,5.117071211054921,2.9379473028182983
1646167732582271000,3.03027099609375,1.8336019133269785,5.167459336033463,2.486877021244168
1646167732592253000,3.0402529296875,2.963182281839847,5.431426498806476,2.012013191628456
1646167732602235100,3.050235107421875,3.907607158488035,5.621067027130723,1.567341671180725
1646167732612216800,3.060216796875,4.339764065277576,5.788402200144529,0.9691220955312252
1646167732622199000,3.070198974609375,4.342203859645128,5.779487072283029,0.4594271910309791
1646167732632181200,3.08018115234375,3.801939629358053,5.5936973741680385,0.08628419874608516
1646167732642163000,3.090162841796875,2.721948928922415,5.541765526878834,-0.19379940156936645
1646167732652145200,3.100145263671875,1.5407577617682515,5.626997001701593,-0.22108780598938463
1646167732662127000,3.110127197265625,0.36064416071772576,5.72243539776206,-0.042782326149940486
1646167732672109000,3.120109130859375,-0.7072762357611209,5.6139563183426855,0.4004401645332575
1646167732682091000,3.130091064453125,-1.5823907717525958,5.418607933765649,0.8533417531877756
1646167732692073200,3.1400732421875,-2.2255554045438766,5.123348391628265,1.1181751774013042
1646167732702055000,3.150054931640625,-2.6028105083227158,4.82926490753293,1.115978544139862
1646167732712037000,3.160037109375,-2.812733361697197,4.3651656330376865,0.969605495133996
1646167732722019000,3.17001904296875,-2.7605846567869183,3.8213492632269856,0.6051017363786697
1646167732732001000,3.1800009765625,-2.4945640686154364,3.3704484930008647,0.0017161562681198119
1646167732741984300,3.189984375,-2.124754604667425,2.9548715496122835,-0.4979986214876175
1646167732751966000,3.199966064453125,-2.0996796385131775,2.5879893712878226,-1.0406272428184746
1646167732761948200,3.2099482421875,-1.986960583436489,2.1426485732764005,-1.5592741000592707
1646167732771929900,3.219929931640625,-1.8935234441958366,1.9022452414423225,-2.061062761479616
1646167732781912000,3.229912109375,-1.8458324493467806,1.746863541072607,-2.565209968724847
1646167732791894000,3.23989404296875,-1.7722341291725634,1.5360411085098982,-3.016074498593807
1646167732801876000,3.2498759765625,-1.748828557535261,1.3939917679220437,-3.5017022988080977
1646167732811858000,3.25985791015625,-1.754541528354585,1.1940011104971169,-3.9973745231747624
1646167732821840100,3.269840087890625,-1.774266950174421,1.0267162063658237,-4.610631508958339
1646167732831822000,3.279822021484375,-1.769754587316513,0.9271388108044862,-5.2878141466856
1646167732841804000,3.289803955078125,-1.628569023951143,0.6155857209920883,-5.951908170258998
1646167732851786200,3.2997861328125,-1.1961188333034514,0.24670740041434763,-6.757041480594873
1646167732861768000,3.309767822265625,-0.5519803870439529,-0.2653998259246349,-7.576800697654485
1646167732871750100,3.319750244140625,0.1737900117089972,-1.0363643246769905,-8.150159388291835
1646167732881732000,3.329732177734375,0.9340788392007351,-1.5074071346998215,-8.769850791037083
1646167732891714000,3.339714111328125,1.5335902082264423,-2.0028157396942374,-9.073827892637253
1646167732901696000,3.349696044921875,1.9775404286623,-2.183081121429801,-9.292369521275162
1646167732911678000,3.359677978515625,2.305339135354757,-2.2107541412532328,-9.52382148489058
1646167732921660000,3.369659912109375,2.3740976142823693,-2.2344518277049064,-9.838409412354231
1646167732931642000,3.37964208984375,2.303993565964699,-1.993398507529497,-10.196271248877048
1646167732941625000,3.389625,1.9743243892252444,-1.6392928086698055,-10.498651436674594
1646167732951607000,3.39960693359375,1.545228039050102,-1.4015338538646698,-10.78784948681593
1646167732961589000,3.409589111328125,1.066270802640915,-1.4637959565103054,-10.916451316809654
1646167732971571000,3.419571044921875,0.6459750140368938,-1.5825082606524228,-10.952823775917292
1646167732981553200,3.42955322265625,0.2921743990710005,-1.6435878755152225,-10.881448977011441
1646167732991535400,3.439535400390625,0.049044893676042554,-1.473011528623104,-10.809175183439255
1646167733001517300,3.449517333984375,-0.07066402028799057,-1.3801929596722124,-10.66945691614747
1646167733011499500,3.45949951171875,-0.18060327192042022,-1.5796756675750017,-10.443556741440295
1646167733021481200,3.469481201171875,-0.24547815088033675,-1.8364532111048697,-10.196722499775886
1646167733031463400,3.47946337890625,-0.28066403055191036,-2.310532027822733,-9.852458980494736
1646167733041445400,3.4894453125,-0.2760358227619901,-2.909908956813812,-9.467378297656774
1646167733051427300,3.49942724609375,-0.19016133732795715,-3.4491818379759787,-8.947638969004153
1646167733061409300,3.5094091796875,-0.08262333815097808,-3.8636686480402944,-8.389315934935212
1646167733071391200,3.51939111328125,-0.04109071980118751,-4.000038773947954,-7.8520187377601856
1646167733081373400,3.52937353515625,-0.04270977237038314,-3.887429462856054,-7.134875845566391
1646167733091355400,3.53935546875,-0.11095745223164558,-3.569772210949659,-6.367159534955024
1646167733101337300,3.54933740234375,-0.2348188097000122,-3.1194208912998436,-5.595655522498488
1646167733111319300,3.5593193359375,-0.4175451016563922,-2.6545097158998248,-4.920361474996805
1646167733121301500,3.569301513671875,-0.5637773174194619,-2.0295698911070823,-4.538111631670594
1646167733131283200,3.579283203125,-0.6422341470081359,-1.284088208657503,-4.5765267025217415
1646167733141265400,3.589265380859375,-0.7232475657444447,-0.5451479106754065,-4.8905654716700315
1646167733151248400,3.599248291015625,-0.9030944298069924,0.29327509032189847,-5.466043054157495
1646167733161230300,3.609230224609375,-1.0782850655615328,1.0984744516313076,-5.982853928142785
1646167733171212500,3.619212646484375,-1.5030115300893783,1.6345979288518429,-6.238648890376091
1646167733181194200,3.6291943359375,-1.9483517435789106,1.9439023629546164,-6.448734240835905
1646167733191176400,3.639176513671875,-2.316953439172357,2.142244668650627,-6.525198471835255
1646167733201158400,3.649158447265625,-2.786193729817867,2.236737308293581,-6.454564846685528
1646167733211140400,3.659140380859375,-3.184250798606872,2.2523124785661697,-6.175947811791301
1646167733221122300,3.669122314453125,-3.376253379887342,2.2863544488996266,-5.715004370978474
1646167733231104300,3.679104248046875,-3.4509646297395227,2.3540666336447,-5.188797307616472
1646167733241086200,3.689086181640625,-3.3035680829048153,2.478447631072998,-4.525443288755417
1646167733251068400,3.699068359375,-3.1877181824564933,2.8540286641597747,-3.890263809499144
1646167733261050000,3.709050048828125,-3.049965077757835,2.9899972235292194,-3.132083388996124
1646167733271032300,3.7190322265625,-2.9182839864492416,3.2193180203348395,-2.454220367789268
1646167733281014500,3.7290146484375,-2.74819863794446,3.5005911226958033,-1.8075865975826977
1646167733290996200,3.738996337890625,-2.581602592860162,3.610791034558415,-1.374201610302925
1646167733300978400,3.748978515625,-2.3247347406983376,3.6615216893643137,-0.9397761740595102
1646167733310960400,3.75896044921875,-2.059401550269127,3.7376691094994543,-0.6469996809095144
1646167733320942300,3.7689423828125,-1.835503070773184,3.9217332989960907,-0.38020752384364603
1646167733330924300,3.77892431640625,-1.5924612071290611,4.3504678301215165,-0.0957937853693962
1646167733340906500,3.788906494140625,-1.6124036327004432,4.752701307812333,0.2952601266592741
1646167733350888200,3.79888818359375,-1.8955264545813202,4.939268420040607,0.8655202667593955
1646167733360870400,3.808870361328125,-2.1139549782335756,5.2424026410758495,1.3387597100436686
1646167733370853400,3.818853271484375,-2.0670994112953545,5.58006106300354,1.823761487314105
1646167733380835300,3.82883544921875,-2.0937834200814365,5.816625255066156,2.31098444776535
1646167733390817300,3.8388173828125,-2.155922773130238,6.0011196526736015,2.7688018655121325
1646167733400799200,3.84879931640625,-2.066213860632479,6.1504591502696275,3.1296038471400736
1646167733410781400,3.858781494140625,-1.995793001450598,6.334299467882514,3.4460856255263086
1646167733420763100,3.86876318359375,-1.9302526077866553,6.466673217630386,3.719541916656494
1646167733430745300,3.878745361328125,-1.8356907022997735,6.597328473022579,3.9548336045652626
1646167733440727300,3.888727294921875,-1.7070634456038474,6.668792119255661,4.154548952180147
1646167733450709200,3.898709228515625,-1.6042364005967973,6.6935559736341235,4.416287917509675
1646167733460691500,3.90869140625,-1.4631763633072374,6.766660957333445,4.6380338951468465
1646167733470673400,3.91867333984375,-1.404955645006895,6.694658966439962,4.844579965564608
1646167733480655400,3.9286552734375,-1.390134507972002,6.6110010245442385,4.923078332740068
1646167733490637300,3.93863720703125,-1.3968123783007262,6.706231915333866,4.956762575677037
1646167733500619500,3.94861962890625,-1.5103297441482544,6.784082632255553,4.948686821249127
1646167733510601200,3.958601318359375,-1.6228303341686725,6.682498573046923,4.942618899512291
1646167733520583400,3.96858349609375,-1.6788675709500909,6.556398496741056,4.906160515686869
1646167733530565400,3.9785654296875,-1.6525848364412783,6.445263934376835,4.749976266762614
1646167733540547300,3.98854736328125,-1.4219932890474796,6.617617227813601,4.459931244403124
1646167733550529300,3.998529296875,-1.00254301135689,7.130749121025204,4.062103308194875
1646167733560511200,4.00851123046875,-0.443306369574368,7.7520485434889785,3.6675013482958074
1646167733570493400,4.018493408203125,0.034359365719556806,8.365767886087298,3.2752643639624117
1646167733580475400,4.028475341796875,0.35354894175976515,8.901685611602664,3.199606188648939
1646167733590457300,4.038457275390625,-0.05805383730083704,8.68035347546339,3.511351001641154
1646167733600439300,4.048439208984375,-1.035483157928288,7.569214772570133,3.8464533093452453
1646167733610422300,4.05842236328125,-1.8838336787000298,6.3959565903723234,3.9562779581546783
1646167733620404200,4.068404296875,-2.403774375143647,5.356086303400993,3.8415497552126645
1646167733630386400,4.078386474609375,-2.669214825339615,4.731942889682949,3.513501457673311
1646167733640368000,4.0883681640625,-2.441223231311142,4.391173934519291,3.084604429462552
1646167733650350300,4.098350341796875,-2.0372718437865376,4.185450870922208,2.7231530440151688
1646167733660332500,4.10833251953125,-1.5772607153877616,4.154611203761399,2.4328280356705188
1646167733670314200,4.118314208984375,-1.1503867174372076,4.271753774368762,2.033100987842679
1646167733680296400,4.12829638671875,-0.6596653934761881,4.523044703181088,1.5241478416204453
1646167733690278400,4.1382783203125,-0.17684183702766895,4.803699089121818,0.9874632233858108
1646167733700260400,4.14826025390625,0.2579486331358552,5.188513229978084,0.4155839576512575
1646167733710242300,4.1582421875,0.5071744461119174,5.2881695359945295,0.11898995203971863
1646167733720224300,4.168224365234375,0.27718261817693707,4.9647488982558245,0.17634616246521473
1646167733730206200,4.178206298828125,-0.2473559274509549,4.507456381165981,0.4297182814657688
1646167733740188400,4.1881884765625,-0.789385998366773,4.101280887851119,0.7448638428121804
1646167733750170000,4.198170166015625,-1.3174287527233361,3.620866146109998,1.0659060609817503
1646167733760152300,4.20815234375,-1.7223150830104945,3.2184120114058254,1.385850547042489
1646167733770134500,4.218134521484375,-1.9426307355836032,2.8896076348021627,1.6423703164190053
1646167733780116200,4.2281162109375,-2.047051479522884,2.600763804925978,1.890364249512553
1646167733790098400,4.238098388671875,-2.131254634211212,2.318559851455688,2.072585441491008
1646167733800080400,4.248080322265625,-2.1292847954429686,2.1493454405665395,2.133427155944705
1646167733810062300,4.258062255859375,-2.092678381448984,1.8664070353418587,2.1399182715296745
1646167733820044300,4.268044189453125,-2.0389970601439473,1.459570447769761,2.0680781931996344
1646167733830026500,4.278026611328125,-1.6758568448267877,1.1307803919523953,1.773702448159456
1646167733840008200,4.28800830078125,-1.174133942119032,0.8338461946010589,1.3893541712492703
1646167733849990400,4.297990478515625,-0.7660625520549714,0.6577396861106157,0.9787187759160995
1646167733859972400,4.307972412109375,-0.35749826390743256,0.5032137257874012,0.40969489961266514
1646167733869954300,4.317954345703125,0.038518823486566545,0.4017231900811195,-0.2877998737812042
1646167733879936500,4.3279365234375,0.3174139446698129,0.4369973325580358,-0.9474187977671623
1646167733889918200,4.337918212890625,0.5525649089336395,0.34752865855693815,-1.648639313685894
1646167733899901400,4.3479013671875,0.898482479032129,0.3434995491713285,-2.34916132594645
1646167733909883100,4.357883056640625,0.9019125996112823,0.20660043095350264,-2.857502477750182
1646167733919865300,4.367865234375,1.267017831391096,0.07384148128032685,-3.3488001402944323
1646167733929847300,4.377847412109375,1.434763923293352,0.02693126154541969,-3.8850937133848666
1646167733939829200,4.387829345703125,1.6217244187533855,-0.07034954751133918,-4.403031545573473
1646167733949811500,4.3978115234375,1.7327661882676184,-0.18927578666508196,-4.841130117371678
1646167733959793400,4.40779345703125,1.7837784364938736,-0.3059609688937664,-5.301108512544632
1646167733969775400,4.417775390625,1.796627396672964,-0.49452539241909976,-5.7876388145565985
1646167733979757300,4.42775732421875,1.8893033422827719,-0.6983002445578574,-6.190452137961984
1646167733989739500,4.437739501953125,1.9627683914661407,-0.8601561093777418,-6.433136274209618
1646167733999720700,4.447720703125,1.8776047211825846,-1.0029612367689609,-6.659578300708532
1646167734009703000,4.457702880859375,1.8212451205790041,-1.155214575985074,-6.810418850517273
1646167734019685000,4.46768505859375,1.7912556405067444,-1.1825544183313845,-7.045392558518052
1646167734029666800,4.477666748046875,1.886803926682472,-1.109969659113884,-7.341494396698474
1646167734039649000,4.48764892578125,1.9313234518885611,-0.875090643659234,-7.700797079679369
1646167734049631000,4.497630859375,2.085052708876133,-0.690665804156661,-8.016066559666395
1646167734059613000,4.507613037109375,2.176851871651411,-0.34953649124801156,-8.38057441007495
1646167734069595000,4.517594970703125,2.2696353692889213,-0.4016407724946737,-8.59122148607075
1646167734079577000,4.5275771484375,2.1678034727990627,-0.9575228431522845,-8.623101309934258
1646167734089558800,4.537558837890625,1.9749264467716217,-1.6317805333435536,-8.704856633079052
1646167734099541000,4.547541015625,2.029139682996273,-2.4678116707682607,-8.82753959441781
1646167734109523000,4.55752294921875,2.2709704172849654,-2.88566766500473,-9.163048144835233
1646167734119505000,4.5675048828125,2.536376088428497,-3.293571005025506,-9.140520671206712
1646167734129487000,4.577487060546875,2.4633435854434964,-3.770792795944214,-8.774991076534986
1646167734139468800,4.58746875,2.1453227609217165,-4.096329402923584,-8.234999233448505
1646167734149451000,4.597450927734375,1.8662077133774757,-4.305964671528339,-7.7623174240469925
1646167734159433000,4.607432861328125,1.6651766069889067,-4.436416513302922,-7.391771462517976
1646167734169415000,4.617414794921875,1.4981436317920684,-4.526510041204094,-6.950082172751427
1646167734179396900,4.62739697265625,1.4337281505048274,-4.430663064342737,-6.5348121033549305
1646167734189379000,4.637379150390625,1.3320681034505366,-4.27000546939671,-6.134218209564685
1646167734199360800,4.64736083984375,1.261745443946123,-4.034054440796375,-5.792399745348096
1646167734209343000,4.657343017578125,1.2730758162558078,-3.5805215685009952,-5.565511144125462
1646167734219325000,4.667324951171875,1.3882418260931968,-3.0091379773288964,-5.471823391124606
1646167734229307000,4.677306884765625,1.4933388618588446,-2.4495126284897326,-5.442238984721898
1646167734239288800,4.687288818359375,1.59618431930542,-1.7689520387619733,-5.511457482376694
1646167734249271800,4.697271728515625,1.626764166486263,-0.9375029684305191,-5.620167447942495
1646167734259254000,4.70725390625,1.4909236174106597,-0.1673416027545929,-5.783736546421051
1646167734269236000,4.717236083984375,1.1119043535035102,0.28762802434563634,-5.904341532441974
1646167734279218000,4.727218017578125,0.6571173164285719,0.5581622905492782,-6.03305266802907
1646167734289199900,4.737199951171875,0.18259075594320892,0.701672935861349,-6.159199506086111
1646167734299181800,4.747181884765625,-0.3349332347474992,0.5842997713685035,-6.260113703209162
1646167734309163800,4.757163818359375,-0.8304407700717449,0.39438919393122196,-6.311901173591614
1646167734319146000,4.76714599609375,-1.2942881156325339,0.25574820048213004,-6.346517144420742
1646167734329128000,4.7771279296875,-1.5560064765654504,0.2517892337232828,-6.341717050662637
1646167734339110000,4.78710986328125,-1.7496388510048388,0.4148024518847465,-6.29972967428267
1646167734349092000,4.797092041015625,-1.852893619904667,0.4761819264769554,-5.984341536352038
1646167734359073800,4.80707373046875,-1.8446100679449735,0.6689408790826797,-5.4403948181599375
1646167734369056000,4.817055908203125,-1.665470913760364,0.929520737504959,-4.801726327744126
1646167734379038000,4.827037841796875,-1.5417537870682776,1.246424540695548,-4.087903519883752
1646167734389020000,4.83702001953125,-1.4719069283820687,1.669378150331974,-3.369963339832425
1646167734399001900,4.847001953125,-1.360853760690987,2.1763041746407747,-2.770610376238823
1646167734408984000,4.856984130859375,-1.3517036550298331,2.6961878802001475,-2.2912609256416556
1646167734418965800,4.8669658203125,-1.2749991855338214,3.231249281147122,-1.7812760982841251
1646167734428948000,4.876947998046875,-1.2124807700395583,3.812810567462444,-1.2354653397858142
1646167734438930000,4.886929931640625,-1.284175886940956,4.275867639428377,-0.6939741980522871
1646167734448912000,4.896911865234375,-1.4695038127630948,4.6717339201748365,-0.22411270676851272
1646167734458894000,4.90689404296875,-1.5836761353880167,5.073679228574037,0.28394086026549337
1646167734468875800,4.916875732421875,-1.6992197463661431,5.632423702925443,0.7204565467864275
1646167734478858000,4.92685791015625,-1.942178023380041,5.803026937824487,1.2597335196018218
1646167734488840000,4.93683984375,-2.0797861666500568,5.923043894824385,1.777522298708558
1646167734498822000,4.94682177734375,-1.9984356249138713,6.120770114448666,2.17166891605556
1646167734508803800,4.956803955078125,-1.7983602118149398,6.2581006098210805,2.450884501364827
1646167734518786000,4.9667861328125,-1.5735852417454124,6.3551815123915665,2.765481196656823
1646167734528767700,4.976767822265625,-1.4589113993391394,6.429080276817083,3.138836954909563
1646167734538750000,4.98675,-1.4240388234004377,6.625510611411928,3.4809301444143053
1646167734548732200,4.996732177734375,-1.4895385927930473,6.975926223582029,3.7458617683053013
1646167734558713900,5.0067138671875,-1.5749010005190966,7.24771195115149,4.114391713836789
1646167734568696000,5.016696044921875,-1.7132207991898059,7.54441584687829,4.463963276398181
1646167734578678000,5.026677978515625,-1.8513427372008562,7.789336363875866,4.8759313816398375
1646167734588660000,5.036659912109375,-2.0534394269943235,7.993708597385883,5.194093075937032
1646167734598642000,5.046641845703125,-2.0982652416706085,8.188799792331457,5.542978409799933
1646167734608623900,5.056623779296875,-2.2034929180786014,8.143377765327692,5.876981231829523
1646167734618605800,5.066605712890625,-2.311976381412148,7.929871208247542,6.187522514250874
1646167734628588000,5.076588134765625,-2.3447055155813694,7.687144986423849,6.467961503875255
1646167734638569700,5.08656982421875,-2.445379474207759,7.248337974095344,6.651195087766647
1646167734648552000,5.096552001953125,-2.4557658436655996,6.84280019416213,6.678122257658839
1646167734658534000,5.106533935546875,-2.3086542512521144,6.59550008855164,6.444332206484675
1646167734668515800,5.116515869140625,-1.994411191703379,6.472585072022676,6.119630296763777
1646167734678498000,5.126498046875,-1.6163175912737846,6.450140600502491,5.697593801972269
1646167734688480000,5.13647998046875,-1.2595569939911364,6.5815212475597855,5.198837055593729
1646167734698462000,5.1464619140625,-0.9708058108344674,6.688948187577724,4.726850827240944
1646167734708444000,5.15644384765625,-0.8985448767438531,6.559403523775935,4.372418965166807
1646167734718426000,5.166426025390625,-0.9828688813328742,6.254761820787191,4.023710741436481
1646167734728408800,5.176408935546875,-1.1891700370788574,5.876033721846341,3.667845631688833
1646167734738390000,5.18639013671875,-1.3581436249494552,5.5348319282233716,3.311860110431909
1646167734748373000,5.196373046875,-1.4944202273547649,5.246113770553469,2.8731419454306364
1646167734758355000,5.20635498046875,-1.4923846298739314,4.884658585713804,2.3011907835036514
1646167734768337000,5.2163369140625,-1.2681003659307957,4.581932360957563,1.6620494148790836
1646167734778318800,5.22631884765625,-0.8531661043599248,4.45582585491091,1.0971709678173065
1646167734788301000,5.236301025390625,-0.3650549628973007,4.528078313434124,0.7677040356516838
1646167734798282800,5.24628271484375,0.036458091564476484,4.83250169749707,0.4938379946768284
1646167734808265000,5.256264892578125,0.23873130696862935,5.379603957110643,0.0899251855969429
1646167734818247000,5.266246826171875,0.2885869325056672,5.903308097741007,-0.23010697874724864
1646167734828228900,5.276228759765625,0.0543736874833703,5.9693093869149685,-0.4324970985293388
1646167734838210800,5.2862109375,-0.35897681202739473,5.848825396925211,-0.7877087128043174
1646167734848193000,5.296193115234375,-0.7486801862299441,5.36733834977746,-1.1091256095051765
1646167734858175000,5.306175048828125,-1.0513085035696625,4.480846898920833,-1.2840841170042752
1646167734868157000,5.316156982421875,-1.351235745257139,3.5050872650712726,-1.378507783064246
1646167734878139100,5.32613916015625,-1.4973904753372071,2.471511109808087,-1.2962468484848737
1646167734888120800,5.336120849609375,-1.5927391472876071,1.4745213486641644,-1.06467564240396
1646167734898103000,5.34610302734375,-1.5876561449348925,0.6659212390005588,-0.8398457272768021
1646167734908085000,5.3560849609375,-1.5749030463457108,0.08777531408667563,-0.6174953540056943
1646167734918067000,5.36606689453125,-1.5291466728210448,-0.243275087878108,-0.4187555734246969
1646167734928049000,5.376048828125,-1.5208987766966222,-0.3907534677773714,-0.2672036604762077
1646167734938030800,5.38603076171875,-1.5408479242697357,-0.4862123221039772,-0.17006313667297362
1646167734948012800,5.3960126953125,-1.4984908377945423,-0.4875333415746689,-0.08320435290932655
1646167734957995000,5.4059951171875,-1.4586476338364183,-0.5411310762494802,-0.07691840450763703
1646167734967976700,5.415976806640625,-1.35644705016464,-0.5847615436613559,-0.23219255284965037
1646167734977959000,5.425958984375,-1.118891508977115,-0.6754103673577309,-0.4315168553203344
1646167734987941000,5.435941162109375,-0.7655623474478721,-0.9155588476479053,-0.5710901611834764
1646167734997923000,5.445923095703125,-0.4014703843638301,-1.041760630762577,-0.7801327245920896
1646167735007905000,5.455905029296875,0.06539660127907991,-1.0322837773650884,-1.1371434972435235
1646167735017887200,5.46588720703125,0.38774288778454064,-1.1625187615185975,-1.3806716830998658
1646167735027869000,5.475868896484375,0.45992739563807844,-1.2465192332416772,-1.5948217987805604
1646167735037851100,5.48585107421875,0.39684710847735405,-1.3014964395761488,-1.906513420280814
1646167735047833000,5.4958330078125,0.20351883155107497,-1.3880647159606216,-2.290089543774724
1646167735057815000,5.50581494140625,0.06129632635340094,-1.4746440982609987,-2.845627331039309
1646167735067797000,5.515796875,0.08460837448835372,-1.424368201485276,-3.5691625546187162
1646167735077779000,5.525779052734375,0.2799741485916078,-1.4338152442663907,-4.238758098217844
1646167735087761200,5.53576123046875,0.45857598102912306,-1.4510428579211234,-4.891818686601519
1646167735097743000,5.5457431640625,0.5290694670557975,-1.449495628479123,-5.492413759210706
1646167735107725000,5.55572509765625,0.512566222152859,-1.5129261903822422,-6.07139555042684
1646167735117707000,5.56570703125,0.3703916477501392,-1.6140572451263666,-6.651322513538599
1646167735127689200,5.575689208984375,0.2427801439680159,-1.7351263415277003,-7.2954551145792
1646167735137671000,5.5856708984375,0.2916037961088121,-1.8331325422495603,-7.991795457240939
1646167735147653000,5.595653076171875,0.40098099341168997,-1.9119886368215082,-8.668729088643193
1646167735157635000,5.605635009765625,0.5605411485098302,-2.005401080012321,-9.232828368026018
1646167735167617000,5.615616943359375,0.7907903122067451,-2.147037748146057,-9.524908111083507
1646167735177599000,5.625598876953125,0.8463362583398818,-2.3045886092483996,-9.51566915809512
1646167735187581200,5.635581298828125,0.8836591500401496,-2.434101124346256,-9.463103689077496
1646167735197563000,5.64556298828125,1.0485666575156152,-2.3598323575645686,-9.597897359448671
1646167735207545000,5.655545166015625,1.3720305498741567,-2.241414067932963,-9.804897018852829
1646167735217527000,5.665527099609375,1.6218180883862077,-2.269561135008931,-9.95743560475111
1646167735227509000,5.675509033203125,1.7892179971992968,-2.494521983039379,-9.960892467206715
1646167735237491200,5.6854912109375,1.889694971948862,-2.9633143837869165,-9.83732804685831
1646167735247473000,5.695472900390625,1.929651573153585,-3.6808980054855343,-9.600907647180557
1646167735257455000,5.705455078125,1.928084031575918,-4.41139137763977,-9.257713802957534
1646167735267437000,5.71543701171875,1.8494002248309551,-5.14046085447073,-8.74564573958516
1646167735277419000,5.7254189453125,1.7931798865675925,-5.591786572110653,-8.145038976538181
1646167735287401000,5.73540087890625,1.8482396566189825,-5.64585718499422,-7.532991951066255
1646167735297383200,5.745383056640625,1.8838672887086867,-5.357478634542226,-6.939279039186239
1646167735307364900,5.75536474609375,1.8299463134288787,-4.83510194312334,-6.361289766138792
1646167735317347000,5.76534716796875,1.7061876856826246,-4.225865298897028,-5.797499698835611
1646167735327329300,5.775329345703125,1.5647941786549984,-3.522840363904834,-5.367607814368605
1646167735337311000,5.78531103515625,1.469039117860794,-2.7544933541744947,-4.905422264540195
1646167735347293200,5.795293212890625,1.305833445867151,-2.0162650038540364,-4.477397342988849
1646167735357275100,5.805275146484375,1.07894323720932,-1.3997697668015956,-4.097732839980721
1646167735367257000,5.815257080078125,0.971902227769047,-0.7566326065391301,-3.839851134601235
1646167735377239000,5.825239013671875,0.8334206626653671,-0.09556991348564624,-3.7757477880030867
1646167735387221000,5.835220947265625,0.5545185272194445,0.27552140696644783,-3.8676796372473237
1646167735397203000,5.845202880859375,0.19135843815803527,0.4717372220277786,-3.965737275895476
1646167735407185200,5.85518505859375,-0.1151134028673172,0.6780073981136083,-4.191504179611802
1646167735417166800,5.865166748046875,-0.3271346898257732,0.8902858747035265,-4.371260442781448
1646167735427149000,5.875149169921875,-0.497150041834265,1.1116454833716154,-4.45766271494925
1646167735437131300,5.88513134765625,-0.6112824708402157,1.3684060757666825,-4.46182158819437
1646167735447113000,5.895113037109375,-0.7043477080285548,1.6111995176076888,-4.369248518437147
1646167735457095200,5.90509521484375,-0.7425637491762638,1.7126818700075148,-4.2250621658205985
1646167735467077000,5.9150771484375,-0.707253074081242,1.8070558517068624,-4.081598866781592
1646167735477059000,5.92505908203125,-0.7039537402749061,1.9298294139385221,-3.886625745257735
1646167735487041000,5.935041015625,-0.7622597987711429,2.1199790608286855,-3.6765246127068996
1646167735497023200,5.945023193359375,-0.8129714566156268,2.3693068728744984,-3.436892849767208
1646167735507005000,5.9550048828125,-0.9590478607624768,2.657463889530301,-3.0944805113106963
1646167735516987100,5.964987060546875,-1.147495379909873,2.9842513733536005,-2.5978105080783367
1646167735526968800,5.97496875,-1.4196844275832174,3.3829952553629874,-2.0554431680321694
1646167735536951000,5.984950927734375,-1.665265746577084,3.7893402600258588,-1.5788596750169992
1646167735546933000,5.99493310546875,-1.8302397434175013,4.202486176875233,-1.076399397945404
1646167735556915000,6.0049150390625,-1.968170835031569,4.744866084142029,-0.6166016200363635
1646167735566897200,6.014897216796875,-2.1586907765388488,5.221827470558882,-0.07030453932583332
1646167735576879000,6.024879150390625,-2.4145570504426956,5.570941937002539,0.5263847580164671
1646167735586861000,6.034861083984375,-2.5179919982150194,5.908435523757338,1.150453060671687
1646167735596843000,6.044843017578125,-2.3723878877550364,6.200000887551903,1.810327420723438
1646167735606825200,6.0548251953125,-2.013038443022966,6.574483604007959,2.633623579737544
1646167735616807000,6.064806884765625,-1.772615821966529,6.965058792608976,3.7474545904546974
1646167735626789000,6.0747890625,-1.6040937772557138,7.4804703211903565,4.83624000724256
1646167735636771000,6.08477099609375,-1.5406389576941728,8.121324338951707,5.504110042223334
1646167735646753000,6.0947529296875,-1.516145736950636,8.654217163687944,5.900407700124383
1646167735656735000,6.10473486328125,-1.7317983661487697,8.815270479953288,6.2081263263404365
1646167735666717000,6.114717041015625,-1.8504823209792374,8.873914976623654,6.379549060928821
1646167735676699100,6.12469921875,-1.8028870415896177,9.046399202963709,6.196398479145765
1646167735686681000,6.13468115234375,-1.6282874305307864,9.191671597251295,5.972714226922393
1646167735696664000,6.1446640625,-1.4774062564507127,9.27945041846931,5.684648980203271
1646167735706645000,6.15464501953125,-1.2402037664845584,9.26245778261423,5.398242606607079
1646167735716628000,6.1646279296875,-1.1161401644423603,8.9265529263556,5.351777792552113
1646167735726609000,6.17460888671875,-0.90256960221529,8.642095348739623,5.391372720837593
1646167735736591000,6.184591064453125,-0.6093862818300724,8.430015609592198,5.351418311589956
1646167735746573000,6.194572998046875,-0.21060294459313153,8.325224863296746,5.0647167544394724
1646167735756555000,6.204554931640625,0.22064152352660893,8.392887363681197,4.391331170907616
1646167735766538200,6.214538330078125,0.6647369976520537,8.605265793514251,3.476736199855804
1646167735776519200,6.224519287109375,1.1595914758950472,8.830354067316652,2.560486447334289
1646167735786502100,6.234502197265625,1.4353107435211538,9.017684565132855,1.9037112223416566
1646167735796483000,6.244483154296875,1.3677832676932216,8.995337708768249,1.7507342450261114
1646167735806466000,6.254466064453125,0.8538646080181002,8.614525789290665,2.122092691981792
1646167735816447000,6.264447021484375,-0.05597615424394607,8.162077789622545,2.497925654003024
1646167735826430200,6.27443017578125,-0.8779287896946072,7.797099983614682,2.553886610677838
1646167735836411000,6.284410888671875,-1.6030869383007287,7.467378784427046,2.346155129867792
1646167735846393000,6.29439306640625,-2.199905122719705,6.984744320809841,1.9941981334745882
1646167735856375800,6.304375732421875,-2.4724767399698493,6.545844369500875,1.4220821363747118
1646167735866357000,6.31435693359375,-2.304569612286985,6.199081434619426,0.6423895567655563
1646167735876340200,6.32434033203125,-1.6319290019035337,5.91997632394731,-0.0930839418888092
1646167735886321200,6.334321044921875,-0.7632572853758931,5.7021396287083626,-0.6687561701655388
1646167735896304000,6.34430419921875,0.025023089836537837,5.478576372516155,-1.071332177683711
1646167735906285000,6.35428515625,0.6156885968446731,5.125829102528095,-1.1361451338559387
1646167735916268000,6.36426806640625,1.0109516510009764,4.669721411308646,-1.036771736434102
1646167735926249000,6.3742490234375,1.1736863444820045,4.089631366589665,-0.8171931659638881
1646167735936231200,6.384231201171875,1.0398352156579493,3.3829777197062967,-0.5228448934525252
1646167735946213000,6.394213134765625,0.7392471719741821,2.6264532497167585,-0.2379384030252695
1646167735956195000,6.404195068359375,0.18069792793393133,2.0189017820984123,0.06882219181358813
1646167735966177000,6.414177001953125,-0.5183284389413892,1.5377841527849434,0.3571323532044887
1646167735976159000,6.424158935546875,-1.0328431648135186,1.1231880371272562,0.5747434229940176
1646167735986141000,6.434140869140625,-1.3802557957753538,0.8012900789111852,0.6434089629411697
1646167735996122600,6.44412255859375,-1.5714973295554517,0.5019599263340234,0.646077305367589
1646167736006104800,6.454104736328125,-1.565812561917305,0.1742857228040695,0.6034650750875473
1646167736016086500,6.46408642578125,-1.4735866981625556,-0.051744800284504885,0.46731823654174803
1646167736026068700,6.47406884765625,-1.2341196242652832,-0.2287929735392332,0.17579554284512997
1646167736036050400,6.484050537109375,-0.9098505530036985,-0.41708033368885516,-0.2937432923555374
1646167736046032600,6.49403271484375,-0.6100586281336844,-0.6355056424707174,-0.6961766765326262
1646167736056014600,6.5040146484375,-0.3959329162418842,-0.7093430320978165,-1.1167723248660564
1646167736065996500,6.51399658203125,-0.1989304808475077,-0.785368871679902,-1.6034288836061954
1646167736075978500,6.523978515625,-0.021406360644102094,-0.8612018190383911,-2.1076649381786585
1646167736085960700,6.533960693359375,0.22780586219802498,-0.914386296737194,-2.5945880389004943
1646167736095942400,6.5439423828125,0.4583810429789126,-0.9547516248732805,-2.982973023980856
1646167736105924600,6.553924560546875,0.5645370862782001,-1.0135697245448827,-3.325283655628562
1646167736115906600,6.563906494140625,0.5050831729210913,-1.0596493386745451,-3.740228730854392
1646167736125888500,6.573888427734375,0.35951939447149633,-1.0137205311924218,-4.196442805057764
1646167736135870700,6.58387060546875,0.2881752829648554,-0.9280138400733471,-4.698351877987385
1646167736145852700,6.593852783203125,0.33233839594870807,-0.8231687332421541,-5.227784917658568
1646167736155834600,6.603834716796875,0.44791444789171214,-0.8862240320920943,-5.669300019901991
1646167736165816600,6.613816650390625,0.6140168642401694,-0.920080124464631,-6.16947773899436
1646167736175798500,6.623798583984375,0.8705354645729064,-1.0646060842990874,-6.662407386654615
1646167736185780500,6.633780517578125,1.074729930363223,-1.5781412976145743,-7.033819609624147
1646167736195762700,6.6437626953125,1.393101541084051,-2.0612322728276253,-7.409505856651068
1646167736205744400,6.653744384765625,1.6873627198338508,-2.5750889731824396,-7.925815210855006
1646167736215726600,6.6637265625,2.1170681418180464,-3.1192291681200266,-8.436219724929332
1646167736225708500,6.67370849609375,2.550438516050577,-3.554320959317684,-8.880613597479462
1646167736235690500,6.6836904296875,3.067905223596096,-3.765367263764143,-9.319577261674404
1646167736245672700,6.693672607421875,3.360944751596451,-3.7937422943770884,-9.672931265383959
1646167736255654700,6.703654541015625,3.474652963840961,-3.7907431125611066,-9.883733239680527
1646167736265636600,6.71363671875,3.4756489891409874,-3.7325440215706824,-10.017739559066294
1646167736275618600,6.72361865234375,3.3426550616681574,-3.643291620668769,-10.072105940026045
1646167736285600800,6.733600830078125,3.114582803618908,-3.5090053152978418,-10.148010783576964
1646167736295582500,6.74358251953125,3.0214018310964104,-3.01914616112411,-10.20631801111698
1646167736305564700,6.753564697265625,2.865288893842697,-2.6471768887937066,-10.040451741611957
1646167736315546600,6.763546630859375,2.640950561624765,-2.3564970756620167,-9.712308167004585
1646167736325528600,6.773528564453125,2.3951871640622615,-2.180537282165885,-9.261566971254348
1646167736335510500,6.783510498046875,2.02899589061141,-2.3964438861250876,-8.652574657177924
1646167736345492500,6.793492431640625,1.6356559134721755,-2.956262127187848,-7.962983204254508
1646167736355474400,6.803474365234375,1.325938806915283,-3.5516192991435527,-7.33456547421813
1646167736365456600,6.81345654296875,1.1616028157174587,-4.063298070937395,-6.877289323741198
1646167736375438600,6.8234384765625,1.2095815414667128,-4.3089083237648005,-6.452203378251195
1646167736385420500,6.833420654296875,1.3401238380037248,-4.123504410097003,-6.042093468096852
1646167736395402800,6.84340283203125,1.450668763911724,-3.6823411900311704,-5.6628176721453665
1646167736405384400,6.853384521484375,1.4252362164914607,-3.0761066502302885,-5.27716532689929
1646167736415366700,6.86336669921875,1.3732082153514027,-2.302111405479908,-5.047360545969009
1646167736425348600,6.8733486328125,1.2485713434658945,-1.279041446661949,-4.892207393658161
1646167736435330600,6.88333056640625,0.9566973521135747,-0.1480225697785616,-4.816932080182433
1646167736445312500,6.8933125,0.5232696947358548,0.6999626248121261,-4.639658866000175
1646167736455294700,6.903294677734375,0.088162559838593,1.4953046089738606,-4.440976368564367
1646167736465276400,6.9132763671875,-0.19452260127738116,2.1029688893169163,-4.259267802283167
1646167736475258600,6.923258544921875,-0.3989914270296693,2.463148355132341,-4.141435203585028
1646167736485240600,6.933240478515625,-0.5870727432131767,2.6426936058998107,-4.129353720647097
1646167736495222500,6.943222412109375,-0.754825557117164,2.6030548384726044,-4.107456946137547
1646167736505204700,6.953204833984375,-0.9414457147069275,2.4445038604170084,-3.9748300984114406
1646167736515186400,6.9631865234375,-1.1438368574023245,2.278475678348541,-3.866750247442722
1646167736525168600,6.973168701171875,-1.2611536155328154,2.052802882656455,-3.765295952093601
1646167736535150600,6.983150634765625,-1.340092419952154,1.990412769716978,-3.5934371641755103
1646167736545132500,6.993132568359375,-1.429399327520281,1.9917612617164848,-3.3438036471813914
1646167736555114500,7.003114501953125,-1.5223530671581624,2.0116256536155936,-3.000190116241574
1646167736565096700,7.0130966796875,-1.5644909579247235,2.1896189987659453,-2.5796096654772755
1646167736575078400,7.023078369140625,-1.693333903197944,2.380243277430534,-2.074661078721285
1646167736585060600,7.033060546875,-1.77401224476099,2.536219436562061,-1.5242705912172794
1646167736595042800,7.043042724609375,-1.7838666992992163,2.7638801912009714,-1.0367524472117424
1646167736605024500,7.0530244140625,-1.908902653504908,2.9840593579128383,-0.6378191801100969
1646167736615006700,7.0630068359375,-1.9844158673897385,3.219815448462963,-0.24312603479623793
1646167736624988700,7.07298876953125,-2.024997176364064,3.5392215898633,0.16278116297125816
1646167736634970600,7.082970703125,-2.086729409916699,3.8051784651488063,0.5921475622594357
1646167736644952600,7.09295263671875,-2.1516396889835594,4.074517968609928,1.0517547860324383
1646167736654934500,7.1029345703125,-2.216684408085048,4.319424749343097,1.467035961344838
1646167736664916500,7.11291650390625,-2.213372799319029,4.600001978394389,1.8826795402288437
1646167736674898700,7.122898681640625,-2.2577394720509645,4.8193543388932945,2.3208295499533413
1646167736684880400,7.13288037109375,-2.2317212336972356,4.983364751398563,2.811301283067465
1646167736694862600,7.142862548828125,-2.2123291354849934,5.1147202640146014,3.2315812895804643
1646167736704844500,7.152844482421875,-2.160906114500761,5.208610846111178,3.5975136198341846
1646167736714826500,7.162826416015625,-2.092749400858581,5.390089110767841,3.831910404729843
1646167736724808700,7.17280859375,-1.9783619741782545,5.602735251626372,4.002648664185404
1646167736734790700,7.182790771484375,-1.8331223131164907,5.826090418025851,4.117307893544435
1646167736744772600,7.192772705078125,-1.6558087669238448,6.197010473564267,4.220759500190615
1646167736754754600,7.202754638671875,-1.5350219945952295,6.679546737504005,4.320045803850889
1646167736764736800,7.21273681640625,-1.580900240933895,7.076026181712746,4.449800895532966
1646167736774718500,7.222718505859375,-1.520720497520268,7.532830038502812,4.453572230765223
1646167736784700700,7.23270068359375,-1.3547688878193498,8.042320944863558,4.223284050232172
1646167736794682600,7.2426826171875,-1.1269245933070777,8.435697162359952,3.8888925211459395
1646167736804664600,7.25266455078125,-0.936814693905413,8.791296899169684,3.613583295625448
1646167736814646500,7.262646484375,-0.8253513379782438,8.980238923835755,3.4436423240274188
1646167736824628500,7.27262841796875,-0.6964353274688124,8.880489678838849,3.4592847143173215
1646167736834610700,7.282610595703125,-0.43444487159624695,8.718146907284856,3.6911966966599223
1646167736844592600,7.292592529296875,-0.11848697095364331,8.57927210507989,3.8107197326630353
1646167736854574600,7.30257470703125,0.4425020674541592,8.61824977824986,3.915006036567688
1646167736864556500,7.312556640625,1.0391140617765486,8.81789615228176,4.055408194470405
1646167736874538800,7.322538818359375,1.433159995228052,8.8339389400661,4.372869631543756
1646167736884520400,7.3325205078125,1.5405321363188325,8.780202089181541,4.852306175902486
1646167736894502700,7.342502685546875,1.2591618571937084,8.39918500252068,5.3935646779239175
1646167736904484600,7.352484619140625,0.6578419774413109,7.818278965243697,5.7802007735103365
1646167736914466600,7.362466552734375,-0.18919687620997427,7.211619478029013,5.801397875317931
1646167736924448500,7.372448486328125,-1.000338779310882,6.584001373937726,5.5042456513017415
1646167736934430700,7.3824306640625,-1.5506103166103362,6.048566463503241,5.006745626986026
1646167736944412700,7.39241259765625,-1.8894062181353568,5.629318722647429,4.473625423234701
1646167736954394600,7.40239453125,-1.8675706722937524,5.452770900130272,3.8450755912512538
1646167736964376600,7.41237646484375,-1.5206266817569731,5.52539716040194,3.229327373173833
1646167736974358500,7.422358642578125,-0.9595090485334395,5.676570887687802,2.7642642220824953
1646167736984340700,7.4323408203125,-0.33935236636400223,5.860699374592304,2.478613050767779
1646167736994322400,7.442322509765625,0.0815466488301754,6.120797586977481,2.127270386880636
1646167737004304600,7.4523046875,0.42642274705171584,6.223086579585075,1.771358515381813
1646167737014286600,7.46228662109375,0.6274269654333591,6.19713497672677,1.4146668916821479
1646167737024268500,7.4722685546875,0.5624585264384746,5.992765081304311,0.9937374813497066
1646167737034250500,7.48225048828125,0.24152809808030723,5.475363840210438,0.62287470895648
1646167737044232700,7.492232666015625,-0.12255553556680679,4.769280102169513,0.2405266659528017
1646167737054214400,7.50221435546875,-0.41913259004354475,4.021469392250478,-0.1757587179660797
1646167737064196600,7.512196533203125,-0.5169418068885803,3.2693016561657187,-0.5755705214679241
1646167737074178600,7.522178466796875,-0.5642506705522536,2.6116379579007623,-0.9506400979012251
1646167737084160500,7.532160400390625,-0.5792866193816065,2.038492617753148,-1.313454588395357
1646167737094142500,7.542142578125,-0.5860172428108752,1.586797482278943,-1.6975854231625795
1646167737104124700,7.552124755859375,-0.6420622245073319,1.1745885540187357,-2.0775410180717704
1646167737114105300,7.562105224609375,-0.6289417539104819,0.786396461161971,-2.452299628859758
1646167737124087600,7.572087646484375,-0.6373319811150431,0.502688240608573,-2.851450338104367
1646167737134069500,7.582069580078125,-0.6492924680218101,0.237307119384408,-3.256772429460287
1646167737144051500,7.592051513671875,-0.6279986278414725,0.019631752187013626,-3.6250726578891275
1646167737154033700,7.60203369140625,-0.7041309965379535,-0.1811228753477335,-4.048029190135002
1646167737164015600,7.612015625,-0.665077043261379,-0.4479916047811508,-4.373472858133912
1646167737173997600,7.62199755859375,-0.6455167488753796,-0.6703226888298988,-4.627027347964048
1646167737183979500,7.6319794921875,-0.6727472856283188,-0.9058511081039905,-4.825300095555186
1646167737193961700,7.641961669921875,-0.6397346583425998,-1.0935329035758972,-5.079647781589627
1646167737203943400,7.651943359375,-0.4578033892214298,-1.2064788992762565,-5.376060585415363
1646167737213925600,7.661925537109375,-0.28318215085268017,-1.2381330976903437,-5.6017263668447725
1646167737223907600,7.671907470703125,-0.06509250376597046,-1.2031225745856762,-5.761771382850408
1646167737233889500,7.6818896484375,0.08614099088311195,-1.2032535074889659,-5.934558391529321
1646167737243871500,7.69187158203125,0.3113970224678516,-1.2947159856557846,-6.158629012721777
1646167737253853400,7.701853515625,0.5402805968999862,-1.3419360019922255,-6.448708521872758
1646167737263835600,7.711835693359375,0.707159112187475,-1.377711664250493,-6.7737155520200725
1646167737273817600,7.721817626953125,0.880619490083307,-1.5255062704920768,-7.19634942818284
1646167737283799600,7.731799560546875,1.0550454981409012,-1.7531898214846848,-7.544556132131815
1646167737293781500,7.741781494140625,1.190038782737404,-2.0314432837635277,-7.793528554868698
1646167737303763700,7.751763671875,1.2950154069937765,-2.4422727403640745,-7.937058489403128
1646167737313745400,7.761745361328125,1.324092886787653,-2.795080800628662,-8.036022136980295
1646167737323727600,7.7717275390625,1.3687176259338856,-3.0403841794639823,-8.09690476796627
1646167737333709600,7.78170947265625,1.365440942350775,-3.209539553642273,-8.128600467434525
1646167737343691500,7.79169140625,1.3663970740318299,-3.309850524175167,-8.113161490762232
1646167737353673500,7.801673583984375,1.3751742547273635,-3.4660639991939064,-8.111769159621
1646167737363655700,7.81165576171875,1.460029297453165,-3.6065059045851227,-8.208813821834326
1646167737373637400,7.821637451171875,1.6837024437606334,-3.7140316288024184,-8.462879768317938
1646167737383619600,7.83161962890625,1.9724644405722618,-3.6185078925460576,-8.783202440041302
1646167737393601500,7.8416015625,2.2464250279627738,-3.429505662125349,-9.066694387495517
1646167737403583500,7.85158349609375,2.3159436776079234,-3.206231159746647,-9.271425517445802
1646167737413565700,7.861565673828125,2.23620320141688,-2.987862549588084,-9.40334275559783
1646167737423547400,7.87154736328125,1.8736020614124833,-2.974145574402809,-9.375149511292577
1646167737433529600,7.881529541015625,1.2097615742087364,-3.3354023140609264,-9.074160485592484
1646167737443511600,7.891511474609375,0.5692867650233209,-3.8280817863523957,-8.667696238464117
1646167737453493500,7.901493408203125,0.16099362196736036,-4.189049187675118,-8.223623268431425
1646167737463475500,7.911475341796875,0.049092751405760644,-4.216639205390215,-7.749282585906982
1646167737473457700,7.921457763671875,0.09074687724336981,-3.9552491996288297,-7.252176529344916
1646167737483439400,7.931439453125,0.1810825433373451,-3.4617210015535353,-6.698259036758541
1646167737493421600,7.941421630859375,0.21511925297379492,-2.849475238639116,-6.133334412467479
1646167737503403800,7.95140380859375,0.1771709228515625,-2.2765502632439136,-5.620557908564805
1646167737513385500,7.961385498046875,0.12079722065739333,-1.7002321382790804,-5.125963542562723
1646167737523367700,7.97136767578125,0.051012394356727594,-1.0664186866790055,-4.712589369915426
1646167737533349600,7.981349609375,-0.09673135848045349,-0.5782137294530868,-4.343593268176913
1646167737543331600,7.99133154296875,-0.13351181386709213,-0.1363362236380577,-4.0142414868235585
1646167737553313500,8.0013134765625,-0.14980112375840543,0.43853053347468374,-3.7995121099501845
1646167737563295500,8.01129541015625,-0.12256605696082115,0.9445768523395061,-3.6366005985975263
1646167737573277400,8.02127734375,-0.1510195596374571,1.4617530525058506,-3.5291894406706095
1646167737583259600,8.031259765625,-0.26159590359702706,1.9654303041517733,-3.539561197081208
1646167737593241300,8.041241455078126,-0.43827685097455976,2.237196157976985,-3.5118554440319536
1646167737603223600,8.0512236328125,-0.6829027689397335,2.397998714351654,-3.4663621053576468
1646167737613205500,8.06120556640625,-0.9268997413516044,2.452982934948802,-3.3560452891170978
1646167737623187500,8.0711875,-1.1550037097133696,2.3917986906677484,-3.1189602880507707
1646167737633169700,8.081169677734374,-1.2873381503641605,2.3867384846687316,-2.8024937072336673
1646167737643151600,8.091151611328126,-1.3245426763817667,2.465047466751933,-2.415111761716008
1646167737653133600,8.101133544921876,-1.1574056562885642,2.6490958741575477,-1.9164549685806034
1646167737663115500,8.111115478515625,-0.9137865772783755,2.8359844734251496,-1.2913222515642642
1646167737673097700,8.12109765625,-0.6501239504098891,3.0181027895510195,-0.686627926942706
1646167737683079400,8.131079345703125,-0.41234249151200053,3.218519563433528,-0.17363924159407615
1646167737693061600,8.1410615234375,-0.33251579834222794,3.4215357061594722,0.3644979135364294
1646167737703043600,8.151043701171876,-0.4700830250799656,3.453043481840193,0.978947323974967
1646167737713025500,8.161025634765625,-0.6724103087589144,3.455591412757337,1.5420774660646914
1646167737723007500,8.171007568359375,-0.859284587240219,3.596529869493842,1.8859815043836832
1646167737732989400,8.180989501953125,-1.1079612419009208,3.712758832387626,2.1044272714316845
1646167737742971600,8.1909716796875,-1.296408468787372,3.917019714477658,2.224157812705636
1646167737752952600,8.20095263671875,-1.3979302764147519,4.083469629089534,2.32980254548192
1646167737762934500,8.2109345703125,-1.4154475206658244,4.2283284741401665,2.479505031171441
1646167737772916500,8.22091650390625,-1.333384446746111,4.408711637036502,2.711969971221685
1646167737782898700,8.230898681640625,-1.2753826318934558,4.578346319164336,2.9261440522998567
1646167737792880600,8.240880615234374,-1.2593813451632856,4.722719426524639,3.116381961995363
1646167737802862600,8.250862548828126,-1.2836252673208712,4.828457682803273,3.252208482545614
1646167737812844500,8.260844482421875,-1.3364268831819295,4.921148825982213,3.366203695037961
1646167737822826500,8.270826416015625,-1.3559294560313224,5.026482008591294,3.4934535259008404
1646167737832808400,8.280808349609375,-1.2566025280997157,5.224033456170559,3.6061744806736704
1646167737842790700,8.290790771484374,-1.2248419467017053,5.508783294731378,3.7154432491660114
1646167737852772400,8.3007724609375,-1.1441358403488993,5.787762733197212,3.880260886400938
1646167737862754600,8.310754638671876,-1.1834326624706386,6.185957749152183,3.9421477259933946
1646167737872736500,8.320736572265625,-1.205607084877789,6.5643199373900885,3.9998213318049904
1646167737882718500,8.330718505859375,-1.2548702974796295,6.959982804518938,4.053756920132041
1646167737892700400,8.340700439453125,-1.3849693802937864,7.3113733992010355,4.0500463751763105
1646167737902682600,8.3506826171875,-1.5709282974958418,7.536385685157775,4.109098283603787
1646167737912664600,8.36066455078125,-1.7553496298670768,7.62656981395185,4.283855131050944
1646167737922646500,8.370646484375,-1.9358850607156752,7.566293332165479,4.470300662726164
1646167737932628700,8.380628662109375,-2.1622420392796395,7.307536012995243,4.686857255026698
1646167737942610400,8.3906103515625,-2.3973151160016655,7.012015189573169,4.806185645240545
1646167737952592600,8.400592529296874,-2.2884356390878557,7.018463050538301,4.6362738997370005
1646167737962574600,8.41057470703125,-1.8155168060600757,7.140359245413541,4.379543117958307
1646167737972556500,8.420556640625,-1.1921990295112133,7.175342880511283,4.223822394892573
1646167737982538500,8.43053857421875,-0.7114145776748657,7.05802232298851,4.122324260401726
1646167737992520400,8.4405205078125,-0.32968408204764127,6.839564280980825,3.9697944423317906
1646167738002502400,8.45050244140625,-0.131766431504488,6.36715018260479,3.847221371108293
1646167738012484600,8.460484619140624,-0.32106501452326774,5.741386766469478,3.703298053342104
1646167738022466300,8.47046630859375,-0.6540662582948803,5.210258613318205,3.499579315304756
1646167738032448500,8.480448486328125,-1.0744722292751072,4.81615466606915,3.1887001792311667
1646167738042430500,8.490430419921875,-1.4104101110205054,4.635403254382312,2.8439310485154388
1646167738052412400,8.500412353515625,-1.5622513623043894,4.73248123434335,2.544604987591505
1646167738062394400,8.510394287109374,-1.5583184067696332,4.974512751901149,2.2915672151118516
1646167738072376600,8.52037646484375,-1.410610602028668,5.297127918475866,2.068228415325284
1646167738082358300,8.530358154296875,-1.195707329893112,5.592183462473749,1.7524270204186438
1646167738092340500,8.540340576171875,-0.9431754611089825,5.7019104961276055,1.297993984413147
1646167738102322700,8.55032275390625,-0.5865721002146601,5.770478420919179,0.65459846547544
1646167738112304400,8.560304443359374,-0.2511804541751742,5.519916683164238,-0.03406476668715477
1646167738122286600,8.57028662109375,0.16468875015825032,5.006352243754267,-0.656946489906311
1646167738132268500,8.5802685546875,0.5010460263594985,4.336592449504137,-1.1434744538307189
1646167738142250500,8.59025048828125,0.6758946437433362,3.478082938289642,-1.4198106843113898
1646167738152232400,8.600232421875,0.6444399134241044,2.5040830075889824,-1.4676964710801839
1646167738162214400,8.61021435546875,0.44066403837203977,1.512089155036211,-1.321739017137885
1646167738172196400,8.6201962890625,0.07938654818683863,0.7321972534626722,-1.1656067906618117
1646167738182178600,8.630178466796876,-0.23521599232405424,0.2930330982595682,-0.9935749842643737
1646167738192160300,8.64016015625,-0.5525260382279753,0.08037994313836097,-0.8605600140035152
1646167738202142500,8.650142578125,-0.8859431693241,0.043344051685929294,-0.8589467335879802
1646167738212124400,8.66012451171875,-1.2877578370809555,0.11456161420345305,-1.0096779778033493
1646167738222106400,8.6701064453125,-1.6354818720795212,0.0445855761796236,-1.1659966667622328
1646167738232088600,8.680088623046874,-1.8681296213507652,-0.0893278042256832,-1.3449790229499339
1646167738242070500,8.690070556640626,-1.9747208411969244,-0.32794425264298915,-1.640410999044776
1646167738252052500,8.700052490234375,-1.8376599565461278,-0.7306774965494871,-1.925340870347619
1646167738262034400,8.710034423828125,-1.402272835663706,-1.1078086816877126,-2.1805326059907673
1646167738272016600,8.7200166015625,-0.6847710470296442,-1.497204305115342,-2.3473890555769206
1646167738281997600,8.72999755859375,-0.00044072950482368465,-1.9475228915393352,-2.4075205759346483
1646167738291979500,8.7399794921875,0.4697848458509892,-2.338459899190068,-2.453344753998518
1646167738301961500,8.74996142578125,0.8642145909883081,-2.5117256312966347,-2.5618197417646646
1646167738311943400,8.759943359375,1.0142305996064096,-2.5533763230681417,-2.647041864237189
1646167738321925400,8.76992529296875,0.9604152035929262,-2.5140520284175873,-2.7757062380731106
1646167738331907600,8.779907470703124,0.8418517333369702,-2.4545225656062364,-2.938874939057231
1646167738341889300,8.78988916015625,0.6345896966695785,-2.3782617482244968,-3.165969291985035
1646167738351871500,8.79987158203125,0.47720125958733256,-2.207137119799852,-3.371117770564556
1646167738361853400,8.809853515625,0.4595371542114764,-2.0694296078085896,-3.58307680594176
1646167738371835400,8.81983544921875,0.6411479592066258,-2.060498113334179,-3.8436382519245145
1646167738381817600,8.829817626953124,1.1143418097835034,-2.053740455767512,-4.1608007060512895
1646167738391799600,8.839799560546876,1.6261059948384762,-2.087122500887513,-4.53357778763324
1646167738401781500,8.849781494140625,2.211713926196098,-2.3479390906751156,-4.880084701927006
1646167738411763500,8.859763427734375,2.7825018895626066,-2.378583819785714,-5.2322968421250575
1646167738421745700,8.86974560546875,3.200148624962568,-2.271485381069779,-5.615570767802
1646167738431727400,8.879727294921874,3.504506834834814,-2.188780209854245,-6.042033262342215
1646167738441709600,8.88970947265625,3.677037822926044,-1.9232196404099464,-6.495828000444173
1646167738451691300,8.899691162109375,3.5729438267230984,-1.7646072875559329,-6.800984082695841
1646167738461673500,8.909673583984375,3.1767174804925915,-1.7366624650537967,-7.10468470544219
1646167738471655400,8.919655517578125,2.552939100694656,-1.793272241026163,-7.4318088738739485
1646167738481637400,8.929637451171875,1.9705705896496772,-1.7393237932175396,-7.872011139953136
1646167738491619300,8.939619384765624,1.778795971906185,-1.4144862744182347,-8.427245560356974
1646167738501601500,8.9496015625,1.6983727741479873,-1.189118599152565,-8.852208756250143
1646167738511583500,8.95958349609375,1.6249322748839854,-1.190890285000205,-9.10529621309042
1646167738521565400,8.9695654296875,1.4396750762104986,-1.2760486945867537,-9.116607880699634
1646167738531547600,8.979547607421875,1.1555308023273945,-1.7495441584587097,-8.954083907359838
1646167738541529300,8.989529296875,0.78456617699489,-2.4418127216368912,-8.751879081016778
1646167738551511600,8.999511474609376,0.5717465062003583,-3.109336135137081,-8.577001822060346
1646167738561493500,9.009493408203125,0.5373066225904971,-3.5187633237242695,-8.396005787962675
1646167738571475500,9.019475341796875,0.813304926353693,-3.557216680759191,-8.0514546839118
1646167738581457400,9.02945751953125,1.1911643527012317,-3.2518963478565213,-7.466375160342454
1646167738591439400,9.039439453125,1.4102432300209997,-2.733074718570709,-6.909570129621028
1646167738601421300,9.04942138671875,1.519627149325609,-2.23461257122457,-6.477792577537894
1646167738611403500,9.059403564453126,1.4864287902094422,-1.6182324849843979,-6.193485222047567
1646167738621385500,9.069385498046875,1.354924955163896,-0.9949053560853004,-6.086296182438731
1646167738631367400,9.079367431640625,1.1294611260473728,-0.5863116957128047,-6.08019903460741
1646167738641349600,9.089349609375,0.8819429937720298,-0.2348667404949665,-6.059137541878223
1646167738651331300,9.099331298828124,0.5879565403103828,0.055334933730959886,-5.97419189825952
1646167738661313500,9.1093134765625,0.1694857751764357,0.3196580703347921,-5.712155995810032
1646167738671295500,9.11929541015625,-0.371813204985857,0.5708686273872852,-5.411660306584834
1646167738681277400,9.12927734375,-0.8147627239465713,0.8102291721701621,-5.266014402809739
1646167738691259400,9.13925927734375,-1.0246985829330981,1.013371571624279,-5.294410476210713
1646167738701241600,9.14924169921875,-0.9610122927032411,1.1489245359301565,-5.215514634150266
1646167738711223300,9.159223388671874,-0.7865515055932104,1.2101572955280542,-4.882689039206505
1646167738721205500,9.16920556640625,-0.578013822966814,1.218604221355915,-4.398116301003098
1646167738731186400,9.1791865234375,-0.3716667822524905,1.251159752523899,-3.811743815013766
1646167738741168400,9.18916845703125,-0.35881826046481724,1.4747586645513773,-3.2805449347138405
1646167738751150300,9.199150390625,-0.5832688208855689,1.8685896400779485,-2.8789994392871856
1646167738761132500,9.209132568359376,-0.9710166771061718,2.2153724487036466,-2.410410452157259
1646167738771114200,9.2191142578125,-1.3048960188865661,2.659492765009403,-1.9437842895328998
1646167738781096400,9.229096435546875,-1.5233566912427543,3.0865748527526855,-1.4106050490707158
1646167738791078700,9.23907861328125,-1.774234363079071,3.38575069155097,-0.8198802130907773
1646167738801060400,9.249060302734375,-1.948058313590288,3.6175253112494943,-0.1791477758824825
1646167738811042600,9.25904248046875,-2.050168150238693,3.790725576904416,0.3907277488142252
1646167738821024500,9.2690244140625,-2.092214563329518,3.9589407476231453,0.885898453399539
1646167738831006500,9.27900634765625,-2.025453980220854,4.171591856917739,1.287853698670864
1646167738840988400,9.288988525390625,-1.918309948797524,4.445889859569072,1.6299533179163932
1646167738850970600,9.298970703125,-1.8593600394397973,4.639330656959117,2.002280317643285
1646167738860952300,9.308952392578124,-1.7797507884129882,4.9044344225466245,2.3403958356887102
1646167738870934500,9.3189345703125,-1.687740905496478,5.211700044298172,2.6134908922910687
1646167738880916500,9.32891650390625,-1.6134569411456583,5.486034871828556,2.895955250263214
1646167738890898400,9.3388984375,-1.6679533782258629,5.808170730453729,3.1814977005064486
1646167738900880600,9.348880615234375,-1.7223393406689167,6.076672029525041,3.5239597233235833
1646167738910862300,9.3588623046875,-1.8194377788960934,6.285734466677904,3.871664907491207
1646167738920844500,9.368844482421874,-1.8884785818964243,6.515860150125622,4.106050586470961
1646167738930826500,9.378826416015626,-1.8649638507962225,6.809754833650588,4.256368573710322
1646167738940808400,9.388808349609375,-1.781032060395181,7.108937686711549,4.3691094022274015
1646167738950790400,9.398790283203125,-1.7853063767135142,7.33281190854907,4.49278020555973
1646167738960772600,9.408772705078125,-1.7835639169603585,7.557595061925054,4.6301615543365475
1646167738970754300,9.41875439453125,-1.7447174689546225,7.781583850052952,4.712961418098211
1646167738980736500,9.428736572265626,-1.6763129180312155,7.918086077907681,4.7683957205504175
1646167738990718500,9.438718505859375,-1.5984952265962957,7.974869456881284,4.9020390518426895
1646167739000700000,9.448699951171875,-1.6310399441093206,7.90652598849535,5.046825123918056
1646167739010681900,9.458681884765625,-1.7134432097688317,7.723700985404848,5.19659716771245
1646167739020664000,9.4686640625,-1.7113012293040752,7.620093311414122,5.332515458199381
1646167739030645800,9.478645751953126,-1.5162094498366117,7.8563050367772576,5.313074260148405
1646167739040628000,9.4886279296875,-1.263502224485576,8.29185333957076,5.257839279660582
1646167739050610000,9.49860986328125,-1.1668643895074724,8.519376731565595,5.26713200866282
1646167739060591900,9.508591796875,-1.237651743914187,8.736077116250991,5.36243304207921
1646167739070573800,9.51857373046875,-1.5819228619799017,8.590167593103647,5.607320241329074
1646167739080556000,9.52855615234375,-2.1795850960075853,8.083236308097838,5.766320716717839
1646167739090538000,9.5385380859375,-2.8635449727848172,7.320337626901268,5.66206597699523
1646167739100520000,9.54852001953125,-3.2991786157742142,6.582583908355236,5.215334016886353
1646167739110502000,9.558501953125,-3.305847718274593,6.273056186890602,4.538951005104184
1646167739120483800,9.56848388671875,-2.8432956732213497,6.266545197561383,3.7205724287480115
1646167739130466000,9.578466064453124,-2.091661605621874,6.265632174369692,3.122463912257552
1646167739140447700,9.58844775390625,-1.2796037567198275,6.254331612676381,2.6529928815960884
1646167739150429000,9.598428955078125,-0.3849403975844383,6.439006627547741,2.1904852602064606
1646167739160411000,9.608410888671875,0.437095824496448,6.678913115775585,1.6056512358307837
1646167739170393000,9.61839306640625,1.1098711671754717,6.766228995656967,0.9823398890227079
1646167739180374800,9.628374755859374,1.5200708014398812,6.648712623301148,0.40053661064505575
1646167739190357000,9.63835693359375,1.6189479397773743,6.290594181668758,-0.02088379807472229
1646167739200339000,9.6483388671875,1.4072164295457303,5.7591293439090245,-0.20962299364507198
1646167739210321000,9.65832080078125,0.9356475498221815,4.980872350060939,-0.20655308468043804
1646167739220302800,9.668302734375,0.31952918325811625,4.225341567283868,-0.14314765721857547
1646167739230285000,9.67828515625,-0.331108415762335,3.4845357676908373,-0.0177811558842659
1646167739240267000,9.68826708984375,-0.9287149740800261,2.847343487307429,0.15613339551985264
1646167739250249000,9.6982490234375,-1.38145640373677,2.2337556621342896,0.37358372178971766
1646167739260231000,9.70823095703125,-1.6694073764264583,1.5941145272940396,0.5254881014376879
1646167739270212900,9.718212890625,-1.5671835580095648,1.060789156359434,0.4674596908390522
1646167739280195000,9.728195068359375,-1.1474012718856335,0.6760849056184292,0.23980127428770065
1646167739290176800,9.7381767578125,-0.6217337222278118,0.28243746996521946,-0.019583236870169638
1646167739300159000,9.748158935546876,-0.09723872348070144,-0.22653321191370485,-0.3012672581195831
1646167739310141000,9.758140869140625,0.4743206626497209,-0.7103022325187921,-0.5869213520437478
1646167739320123000,9.768122802734375,1.0078456478096545,-1.085009989902377,-0.8724965355128049
1646167739330104800,9.778104736328125,1.3955086022257803,-1.4384581016361713,-1.2056471246272324
1646167739340087000,9.788087158203124,1.671010135447979,-1.690622013890743,-1.5141174459934235
1646167739350068700,9.79806884765625,1.8094738726340234,-1.8067302730143069,-1.854239043164253
1646167739360051000,9.808051025390625,1.8531588467121123,-1.841814445877075,-2.2482260860353707
1646167739370033200,9.818033203125,1.7874398816108703,-1.780528494787216,-2.633287479650974
1646167739380014800,9.828014892578125,1.6409177795231342,-1.5963076534241436,-3.027470337355137
1646167739389997000,9.8379970703125,1.297324122327566,-1.3631728512883186,-3.454181253698468
1646167739399978800,9.847978759765626,0.8170869291104376,-1.090159627750516,-3.9795261472731824
1646167739409961000,9.8579609375,0.3884906374119222,-0.901346197900176,-4.418073631882668
1646167739419943000,9.86794287109375,-0.04873042089939117,-0.759415515255928,-4.865492405211925
1646167739429924900,9.8779248046875,-0.39193376360312104,-0.6672609631717205,-5.374791003870964
1646167739439906800,9.88790673828125,-0.6317584187664091,-0.6105997492730617,-5.816731638050079
1646167739449889000,9.897888916015624,-0.7747673981666564,-0.6016600714921951,-6.23775457188487
1646167739459870700,9.90787060546875,-0.7478374517954886,-0.6028261926621198,-6.713745944225788
1646167739469853000,9.91785302734375,-0.5742695218719541,-0.7506698987424373,-7.215293782627582
1646167739479835100,9.927835205078125,-0.27522315467223524,-0.8701742300450801,-7.753954669371247
1646167739489816800,9.93781689453125,0.053025633875280614,-1.0566682770371436,-8.283183710902929
1646167739499799000,9.947799072265624,0.30423312218785287,-1.228764380842447,-8.824100267618894
1646167739509781000,9.957781005859376,0.5258827998436987,-1.300625501960516,-9.304052944806218
1646167739519763000,9.967762939453126,0.5136871890068054,-1.5562567980647086,-9.68165467006564
1646167739529744000,9.977743896484375,0.30378640133365986,-2.044692056915164,-9.902670579862594
1646167739539726000,9.98772607421875,-0.0046070554040372365,-2.734861017465591,-9.94527754944563
1646167739549707800,9.997707763671874,-0.2695277195096016,-3.318418446034193,-10.109701218926906
1646167739559690000,10.00768994140625,-0.1983484431758523,-3.4741765785008667,-10.455267052978277
1646167739569672000,10.017671875,-0.016046441046148538,-3.4617917287021873,-10.689024370926617
1646167739579654000,10.02765380859375,0.060641954097896814,-3.4008822097092866,-10.707579433792828
1646167739589635800,10.0376357421875,0.06301131357774138,-3.208735251522064,-10.517259106510878
1646167739599618000,10.0476181640625,0.04950915018692612,-3.1781179949402807,-10.066242016428708
1646167739609599700,10.057599853515624,-0.0553822800040245,-3.3818110140144824,-9.451807803559303
1646167739619582000,10.06758203125,-0.2146668330311775,-3.602449322670698,-8.818751892328262
1646167739629564000,10.07756396484375,-0.2557727504014969,-3.6154940976828334,-8.215399045443535
1646167739639545900,10.0875458984375,-0.19071531794890761,-3.5027456703811883,-7.704474891409277
1646167739649528000,10.097528076171875,-0.0894715966105461,-3.2052316273152828,-7.321626497668028
1646167739659510000,10.107510009765624,-0.0003004442512989044,-2.734400998738408,-7.008973922181129
1646167739669492000,10.117491943359376,-0.021101094087213276,-2.1328291900515555,-6.766679077512025
1646167739679474000,10.127473876953125,-0.09360299732685089,-1.4035411020338535,-6.567254237276315
1646167739689455900,10.137455810546875,-0.19110826278924942,-0.5613964501649141,-6.43402767009139
1646167739699437800,10.147437744140625,-0.31963059780597686,0.3684744159519672,-6.323046836984157
1646167739709420000,10.157419921875,-0.4810805121734738,1.258546940165758,-6.168752931851148
1646167739719401700,10.167401611328126,-0.6938647463284432,1.9702689763545989,-5.894759465104341
1646167739729384000,10.177384033203126,-0.9141945735573768,2.527504215186834,-5.571994076403975
1646167739739366000,10.187365966796875,-1.1513855192162097,2.892490204501152,-5.2035301818460225
1646167739749347800,10.197347900390625,-1.392793790309131,3.059139733338356,-4.774921322926879
1646167739759330000,10.207330078125,-1.5697133687481284,3.016882307845354,-4.273936963626742
1646167739769312000,10.21731201171875,-1.7194690459296107,2.816283747655153,-3.7196488841623068
1646167739779294000,10.2272939453125,-1.7263433156132697,2.583695473486185,-3.183226131734252
1646167739789276000,10.23727587890625,-1.5574027532294392,2.4037153384327885,-2.638752759319544
1646167739799258000,10.247258056640625,-1.4016422826752066,2.2700836975783107,-2.0659107860326764
1646167739809239800,10.25723974609375,-1.3007155183315275,2.153179904162884,-1.5101374364465474
1646167739819222000,10.267221923828124,-1.2186349087551236,2.036747235390544,-0.9754974757820367
1646167739829204000,10.277203857421876,-1.0834173138834535,2.0616589738070963,-0.4917103349983692
1646167739839186000,10.28718603515625,-1.0384827781356871,2.181715678295493,0.005958031621575355
1646167739849168000,10.29716796875,-1.0298154875554144,2.2670517825365066,0.4800719196528196
1646167739859149800,10.30714990234375,-1.1035700212046504,2.3646055633157492,0.8522399294257164
1646167739869130800,10.317130859375,-1.0884367494806646,2.550073189869523,1.1935101121097802
1646167739879113000,10.327113037109376,-1.1728010860800742,2.7605320498168466,1.475829508653283
1646167739889095000,10.337094970703125,-1.2343952263362705,2.9429098936617373,1.7042215001761913
1646167739899076900,10.347076904296875,-1.2840605899982154,3.0775995191365477,1.9128835398346185
1646167739909058800,10.357058837890625,-1.2332443027354776,3.286618117147684,2.1117940008074045
1646167739919041000,10.367041015625,-1.142208817809075,3.5352187839627263,2.3732360290169714
1646167739929023000,10.37702294921875,-1.0159867225587367,3.806438109821081,2.7061843735575675
1646167739939005000,10.3870048828125,-0.9011660190276801,4.225684389372169,2.9976258187115192
1646167739948987000,10.39698681640625,-0.7791060118928551,4.6846144445359705,3.28513284702599
1646167739958968800,10.40696875,-0.7225742695927619,5.12393700517118,3.542571484813094
1646167739968951000,10.416950927734375,-0.7100776299826801,5.559129334133863,3.916740313014388
1646167739978932700,10.4269326171875,-0.7693582325994968,5.94394172142446,4.429403419670463
1646167739988915000,10.4369150390625,-0.8107818376168608,6.3649740076094865,4.872762688475847
1646167739998897700,10.446897705078126,-0.7946084091901778,6.7260156432121985,5.274149778470397
1646167740008879600,10.456879638671875,-0.814548788934946,7.142237314245104,5.584522134065628
1646167740018861800,10.46686181640625,-0.8343909690022469,7.630964249518513,5.706513021486997
1646167740028843500,10.476843505859375,-0.7294117143973707,8.006018043860793,5.780348657548427
1646167740038825700,10.48682568359375,-0.5611512432321906,8.40769213410318,5.800008466786146
1646167740048807700,10.4968076171875,-0.38973113899230954,8.78475434565842,5.759430957204103
1646167740058789600,10.50678955078125,-0.3328396234691143,8.869115467387438,5.755384896683693
1646167740068771600,10.516771484375,-0.35931042789593337,8.66367823499441,5.856349362689256
1646167740078753800,10.52675390625,-0.49721200115457176,8.183114147910475,5.959006019565463
1646167740088735500,10.536735595703124,-0.6235501240000129,7.7355334620177745,5.981859656408429
1646167740098717700,10.5467177734375,-0.4551603273667395,7.706069467124342,5.670439253064989
1646167740108699600,10.55669970703125,0.04810922026112675,8.041372850358485,5.138006447055935
1646167740118681600,10.566681640625,0.6195649998866021,8.441572776395082,4.718336681395769
1646167740128663800,10.576663818359375,0.9758417591750621,8.882629028955101,4.534496948304772
1646167740138645800,10.586645751953125,0.9088575964435934,9.008563685566186,4.660044651424885
1646167740148627700,10.596627685546874,0.31215953127294777,8.758438001140952,4.841268649059534
1646167740158609700,10.606609619140626,-0.6164462833441794,8.354979950091243,4.805794600096345
1646167740168591600,10.616591552734375,-1.529478388993442,7.891449415394663,4.393293410891294
1646167740178573600,10.626573486328125,-2.083368116790056,7.537500952923297,3.709482294934988
1646167740188555800,10.6365556640625,-2.1401685930289327,7.2734724153518675,2.84489843224287
1646167740198537500,10.646537353515624,-1.7516691877886652,7.235347559618949,1.8811837487131355
1646167740208518700,10.6565185546875,-1.0820482174873352,7.263680504655838,1.1343337005198002
1646167740218500600,10.66650048828125,-0.3620836920015514,7.2856526824891565,0.6179635560393333
1646167740228482800,10.67648291015625,0.2439879123225808,7.189870587557554,0.1837193215817213
1646167740238464500,10.686464599609375,0.6701578536570072,6.914973449969291,-0.296364288508892
1646167740248446700,10.69644677734375,0.8752876275360584,6.411127856019139,-0.7684218285322189
1646167740258428700,10.7064287109375,0.852414116948843,5.702026815983653,-1.060580482044816
1646167740268410600,10.71641064453125,0.6086322485923766,4.907985393026471,-1.1880512621819972
1646167740278392800,10.726392822265625,0.22592224040850994,3.96332436953485,-1.1735580419272185
1646167740288374800,10.736374755859375,-0.19837503892183303,3.0740508867442604,-1.0745856265217064
1646167740298356700,10.746356689453124,-0.6597963263794779,2.3721786289185283,-0.9043599927634001
1646167740308338700,10.756338623046876,-1.2550094136893748,1.6580664827227591,-0.6709896283060311
1646167740318320600,10.766320556640625,-1.663367219479382,1.0754156476050614,-0.46744916944503784
1646167740328302600,10.776302490234375,-2.0024888458274304,0.5752291606843472,-0.41818332649469375
1646167740338284800,10.786284912109375,-2.097613938155025,0.14487959557771682,-0.43733577073216434
1646167740348266500,10.7962666015625,-2.0218143085442484,-0.24020985508859155,-0.5209907900184393
1646167740358248700,10.806248779296874,-1.6847852705612778,-0.6100654962658881,-0.6320142932236195
1646167740368230700,10.816230712890626,-1.2475497453331947,-0.8809785326540469,-0.832204857134819
1646167740378212600,10.826212646484375,-0.7118577913977205,-1.15559509973526,-1.0494348186522722
1646167740388194600,10.836194580078125,-0.20319383738040922,-1.419345989409089,-1.2853688961178065
1646167740398176800,10.8461767578125,0.19054821775369346,-1.6348393363922833,-1.5550766483694314
1646167740408158700,10.85615869140625,0.4891885614357888,-1.750212851500511,-1.9366934544891117
1646167740418140700,10.866140625,0.7061749234557151,-1.8612100512206553,-2.3289310233443974
1646167740428123000,10.876122802734375,0.857210703575611,-1.9263211135566234,-2.752704717192054
1646167740438104600,10.8861044921875,0.7858510291736572,-2.0084481926232574,-3.1899282597213983
1646167740448086800,10.896086669921875,0.6179400290332734,-1.7794518054664135,-3.653718029876053
1646167740458068700,10.90606884765625,0.44768275802768764,-1.6347089880108832,-4.218483664213121
1646167740468050700,10.91605078125,0.28404943520650267,-1.6202701282918452,-4.8161914909482
1646167740478032600,10.92603271484375,0.20680625572390854,-1.5376345151811837,-5.433630146330595
1646167740488014600,10.9360146484375,0.48952298102192576,-1.6597960829943417,-5.9173524051845074
1646167740497996500,10.94599658203125,0.9325006300985813,-1.7462813572704792,-6.386720559993386
1646167740507978800,10.955978759765625,1.2974480409681797,-1.9531500837713478,-6.794476015976071
1646167740517960700,10.965960693359374,1.4531447986364363,-2.204627182805538,-7.130484332609176
1646167740527942700,10.975942626953126,1.5147826319038866,-2.3952637364298104,-7.547611428049207
1646167740537923600,10.985923583984375,1.577388433420658,-2.6124311541050673,-8.02814044381976
1646167740547905800,10.99590576171875,1.704640017849207,-2.775037545031309,-8.445581427514552
1646167740557887700,11.0058876953125,1.9519781173825264,-2.7985657201349734,-8.877004174810647
1646167740567869700,11.01586962890625,2.235129873096943,-2.6720564785063265,-9.32939255324602
1646167740577851600,11.0258515625,2.5151485914826393,-2.6115128702163695,-9.734066409826278
1646167740587833600,11.03583349609375,2.7309517350673675,-2.6369734746873377,-10.063563737130165
1646167740597815800,11.04581591796875,2.6867244708061215,-2.8311785344481466,-10.321655870389938
1646167740607797500,11.055797607421875,2.613598444318771,-2.9778111111730334,-10.651486375170945
1646167740617779700,11.06577978515625,2.6221839018344877,-2.7305846553206443,-11.05543776269555
1646167740627761700,11.07576171875,2.6072902840852734,-2.198900037330389,-11.40014785670042
1646167740637743600,11.08574365234375,2.480581135970354,-1.5674842945218086,-11.533225955325364
1646167740647725600,11.0957255859375,2.0547733059465885,-1.325543670117855,-11.319800646787881
1646167740657707800,11.105707763671875,1.3946283122599124,-1.7166905211269854,-10.820423722684383
1646167740667689500,11.115689453125,0.7862767072398215,-2.3617793999791146,-10.244910484361649
1646167740677671700,11.125671630859374,0.45011919139437373,-3.0156086346477267,-9.593453239521384
1646167740687654000,11.13565380859375,0.4273345281343907,-3.3359593634217974,-8.983030600380896
1646167740697635600,11.145635498046875,0.6477882009387016,-3.2164018406271935,-8.342053833022714
1646167740707617800,11.15561767578125,0.8472854488234967,-2.778642876046896,-7.641821743619442
1646167740717599700,11.165599853515625,0.9176595462542027,-2.133147754481435,-6.95281656615138
1646167740727581700,11.175581787109374,0.9099837509293108,-1.4098638753145933,-6.3047945564568035
1646167740737563600,11.185563720703126,0.8356113776426762,-0.5686322466373444,-5.744097194471955
1646167740747545600,11.195545654296875,0.6335422334432601,0.2599988436639309,-5.254024689808488
1646167740757527600,11.205527587890625,0.3475311427749693,1.0199977117657661,-4.749685467122495
1646167740767509800,11.215509765625,-0.05713233854174614,1.6774819618105887,-4.223253655093908
1646167740777491500,11.225491455078124,-0.4026804908059537,2.2702771743237973,-3.7938036691755053
1646167740787473700,11.2354736328125,-0.6234264976203441,2.7415596383213994,-3.545382450580597
1646167740797456000,11.245455810546876,-0.7397989606380462,3.0253333253264425,-3.3724610018670558
1646167740807437600,11.2554375,-0.909925225675106,3.1284236974447963,-3.1979882320582864
1646167740817419800,11.265419677734375,-1.1363994008779525,3.0016958446294066,-3.0616882487773895
1646167740827401700,11.275401611328125,-1.2482432805553079,2.8464591056883335,-2.9342671530008313
1646167740837383000,11.2853828125,-1.373050248310715,2.793027375230193,-2.808279304897785
1646167740847364600,11.295364501953125,-1.5982383292257785,2.7545921383738516,-2.590378896772861
1646167740857346800,11.305346923828125,-1.786207709467411,2.690761178976297,-2.3907108954310416
1646167740867328800,11.315328857421875,-1.8679165631219743,2.648864403489232,-2.21253108779788
1646167740877310700,11.325310791015625,-1.7321753827676176,2.714163681873679,-1.968519502338767
1646167740887292700,11.335292724609374,-1.7227178185924887,2.814263640004396,-1.5760335116803645
1646167740897274600,11.345274658203126,-1.8065128308713434,2.8269676387548444,-1.1681044526964426
1646167740907256600,11.355256591796875,-1.8890929144024848,2.8778824179559943,-0.8349316517502069
1646167740917238800,11.36523876953125,-2.1203395647041496,2.9796330659031867,-0.5283212790369988
1646167740927220500,11.375220458984375,-2.270950835801661,3.11870017580986,-0.1879056673556566
1646167740937202700,11.38520263671875,-2.4439757448896766,3.3796488675445318,0.11695581586360931
1646167740947184600,11.3951845703125,-2.5820740097641943,3.6812560251429676,0.4165507568567991
1646167740957166600,11.40516650390625,-2.681445945881307,4.046061689454317,0.7798504005193709
1646167740967148800,11.415148681640625,-2.8192788378179072,4.361731566935777,1.1796277172297238
1646167740977130800,11.425130859375,-2.903663048161566,4.628142907990515,1.5904998439282179
1646167740987112700,11.43511279296875,-2.915800060679018,4.855079440008104,1.9858195967078207
1646167740997094700,11.4450947265625,-2.8834418056488036,5.058115748739242,2.379236730736494
1646167741007076900,11.455076904296876,-2.710892989639938,5.29687774310708,2.7921593602240082
1646167741017058800,11.465058837890625,-2.5443966055378318,5.441531713235378,3.2002503317713735
1646167741027041000,11.475041015625,-2.3914681435391305,5.563866299527883,3.6092765383422374
1646167741037022700,11.485022705078125,-2.213787809860706,5.824646064436435,3.926467926302552
1646167741047005000,11.4950048828125,-2.061855665422976,6.104438572850823,4.2014732004404065
1646167741056987000,11.50498681640625,-1.8935609997272491,6.373124580839276,4.511433468103409
1646167741066968800,11.51496875,-1.7588886176481842,6.654232263505459,4.92885516257584
1646167741076951000,11.524950927734375,-1.6280945383071899,6.895227131491899,5.441543403673172
1646167741086933000,11.53493310546875,-1.4379004677534102,7.251680854782462,5.9059986519992345
1646167741096915000,11.5449150390625,-1.2798705909624695,7.563992069485783,6.266292099583149
1646167741106897000,11.55489697265625,-1.2048249945893883,7.829696431314945,6.512748155584931
1646167741116879000,11.564879150390626,-1.2442659013569355,8.02271491163969,6.626507221233845
1646167741126860800,11.57486083984375,-1.3484449454948306,8.031046686655282,6.650923869609833
1646167741136842000,11.584842041015625,-1.4179329077407716,7.962463564294576,6.631813510948419
1646167741146824000,11.594823974609374,-1.5402943820402026,7.943513949152827,6.432805434820056
1646167741156806000,11.604805908203126,-1.4866118916913866,8.054123610860108,6.080524613299965
1646167741166787800,11.614787841796876,-1.2835226837292313,8.355827506831288,5.6633373121052974
1646167741176770000,11.62477001953125,-1.0148203091278671,8.709975291267037,5.179982132998108
1646167741186751700,11.634751708984375,-0.7966890148565172,9.01148395692706,4.802591420140862
1646167741196734000,11.64473388671875,-0.8557637196376919,8.891616053009033,4.708548277831078
1646167741206716000,11.6547158203125,-1.166651039017737,8.300009758019447,4.704488773307204
1646167741216697900,11.66469775390625,-1.4636673616945743,7.482835296756028,4.618866837862134
1646167741226680000,11.67468017578125,-1.6224226301506162,6.723266052243113,4.334898505067825
1646167741236662000,11.684662109375,-1.6030848924741148,6.230005565193295,3.8841479569673534
1646167741246644000,11.69464404296875,-1.3675614416360855,5.857684410685301,3.421116603964567
1646167741256626000,11.7046259765625,-0.9675973701819777,5.8640276422321795,2.9298879150032997
1646167741266607900,11.71460791015625,-0.39055063868165013,6.133529642778635,2.3870617252737283
1646167741276589800,11.72458984375,0.2687174260400236,6.542528961342573,1.8170909235090016
1646167741286572000,11.734572021484375,0.8082838833212852,6.911480931678414,1.1380828239202498
1646167741296553700,11.7445537109375,1.1178919765457511,7.163159106242657,0.32908933102488513
1646167741306536000,11.754535888671874,1.2837725668370723,7.08161362645626,-0.4588666345387697
1646167741316518000,11.764517822265624,1.2633499565333126,6.697775637155771,-1.1194751540839671
1646167741326499800,11.774499755859376,0.8918459636270999,5.842581534099579,-1.4914923572093248
1646167741336481800,11.784481689453125,0.31638650131821633,4.74091910008192,-1.7056278598427772
1646167741346464000,11.794464111328125,-0.13706512243449687,3.6630759330689906,-1.7179963430285452
1646167741356446000,11.804446044921875,-0.49820174284428353,2.6253958496183154,-1.5145312874913215
1646167741366428000,11.814427978515624,-0.8486120943173766,1.783452857801318,-1.1651000101834534
1646167741376410000,11.82441015625,-1.159244854414463,1.1558452751040458,-0.7162924128443002
1646167741386391800,11.834391845703125,-1.3640218693330883,0.7972627230912447,-0.3079395754903555
1646167741396374000,11.8443740234375,-1.3447792625941335,0.5018593885689974,-0.06239946528971195
1646167741406356000,11.85435595703125,-1.110765777927637,0.2621586520463228,0.15898352425396442
1646167741416338000,11.864337890625,-0.7579390129625797,0.13123977728188038,0.26365619712769983
1646167741426318800,11.87431884765625,-0.4335433927118778,-0.05678162540793419,0.2611737326622009
1646167741436301000,11.884301025390625,-0.10960706053599714,-0.317942498588562,0.20847265456616879
1646167741446282800,11.89428271484375,0.13984569306373595,-0.5533902538418769,0.01298223116993904
1646167741456265000,11.904264892578125,0.264915695669502,-0.8534370302557944,-0.2687859612315893
1646167741466247000,11.914246826171874,0.3873356221579015,-1.0644178682506085,-0.7039099011331796
1646167741476228900,11.924228759765626,0.6609329291939735,-1.0933236447393893,-1.244205111080408
1646167741486210800,11.9342109375,0.6672599402584135,-1.146495847478509,-1.6745026537388563
1646167741496193000,11.944193115234375,0.8965946194589137,-1.082546230137348,-2.1098913820564746
1646167741506175000,11.954175048828125,0.9141758688569068,-0.9463409394025802,-2.6280969252705573
1646167741516157000,11.964156982421875,0.8599987268589436,-0.7903145113885403,-3.172399032771587
1646167741526139100,11.97413916015625,0.6872152253113687,-0.692114833921194,-3.702859077402949
1646167741536120800,11.984120849609376,0.42903439085483547,-0.6597147855758667,-4.307750385901332
1646167741546103000,11.99410302734375,0.24170915373563764,-0.5948761104404926,-5.041517665159702
1646167741556085000,12.0040849609375,0.15033990681022405,-0.6424988623589277,-5.758214567151665
1646167741566067000,12.01406689453125,0.021274112566560505,-0.9782821380645036,-6.323478214138746
1646167741576049000,12.024048828125,-0.033365678507089616,-1.3052835568994283,-6.799156867268681
1646167741586030800,12.03403076171875,-0.14141001977100967,-1.654884930077195,-7.283335637718439
1646167741596012800,12.0440126953125,-0.18573066140413283,-1.9619079752445219,-7.765757919889688
1646167741605995000,12.0539951171875,-0.22052374236583708,-2.034242559093237,-8.301378708285093
1646167741615976700,12.063976806640625,-0.1444520178154111,-1.9942466487914323,-8.837319814676047
1646167741625959000,12.073958984375,-0.008263824345916508,-1.9011469248116015,-9.344411258679628
1646167741635941000,12.083941162109374,0.18176994107961653,-1.9020622860908507,-9.749853761544824
1646167741645922800,12.0939228515625,0.2552012341238558,-2.1103426329553128,-10.023651413458586
1646167741655905000,12.103905029296875,0.40633609070405363,-2.5673908198952673,-10.110926376807688
1646167741665887000,12.113886962890625,0.4811749124586582,-3.1805005061626432,-9.99083401648402
1646167741675869000,12.123868896484375,0.6050549746274948,-3.5567853036046024,-10.02744612956643
1646167741685851000,12.133850830078124,0.8990320757389068,-3.5185996575951575,-10.180265870493649
1646167741695833000,12.1438330078125,1.0946364809036255,-3.399915410503745,-10.17472694106698
1646167741705814800,12.153814697265625,1.1471524116910994,-3.2254934940993785,-9.883852482146024
1646167741715797000,12.163796875,0.938265038844198,-3.02686711076498,-9.563156885457039
1646167741725779000,12.173779052734375,0.6932943990945816,-3.0627403881788253,-9.25863617849946
1646167741735760000,12.183759765625,0.46168680652603505,-3.1540801167488097,-8.90930134730339
1646167741745741800,12.193741943359376,0.2366166529022157,-3.283721226662397,-8.492500415077805
1646167741755724000,12.20372412109375,0.059693567331880325,-3.4184698888480662,-8.096093451583386
1646167741765705700,12.213705810546875,0.06624971097707748,-3.2108518052846193,-7.775291471910476
1646167741775688000,12.22368798828125,0.13701178481206297,-2.7979186544030905,-7.467617853879928
1646167741785670100,12.233670166015624,0.17841697738990187,-2.282461533114314,-7.115044771414995
1646167741795651800,12.24365185546875,0.16890213006958366,-1.7756337084829805,-6.74113780902028
1646167741805634000,12.253634033203125,0.13115852873921394,-1.2322370253890753,-6.399324605500698
1646167741815616000,12.263615966796875,-0.01620309291258454,-0.6511702445924281,-6.055389587521553
1646167741825598000,12.273597900390625,-0.2440216684617102,-0.07263093644678592,-5.734367827618121
1646167741835580000,12.283579833984374,-0.5025251590013504,0.5115846637696028,-5.505826783013344
1646167741845561900,12.293561767578124,-0.7496060689032077,1.0830728843599557,-5.286907553234696
1646167741855543800,12.303543701171876,-0.9892660350240766,1.5816875919193027,-5.089128726640343
1646167741865526000,12.313526123046875,-1.225693302834034,1.9929110162734984,-4.848490417006611
1646167741875507700,12.3235078125,-1.51269252775684,2.2297008337855337,-4.55947356865108
1646167741885490000,12.333489990234375,-1.767122046855837,2.204654655334353,-4.266310122010111
1646167741895471900,12.343471923828124,-1.8925439316391943,2.124456498503685,-3.946159299722314
1646167741905453800,12.353453857421876,-1.8794342746973036,2.020335614293814,-3.6240854004174468
1646167741915436000,12.36343603515625,-1.8015856036022304,2.00008777603507,-3.3072435565471645
1646167741925418000,12.37341796875,-1.7576510386772453,2.0471388655453917,-2.973772064915299
1646167741935400000,12.38339990234375,-1.7022320799246429,2.1678531571596857,-2.5840263128757477
1646167741945382000,12.3933818359375,-1.6771800562545656,2.4033108492851256,-2.1702111184626816
1646167741955364000,12.403364013671874,-1.6607129055783152,2.757830389642715,-1.832166912087798
1646167741965345800,12.413345703125,-1.6903282916411757,3.1910832749754188,-1.4526000242352486
1646167741975328000,12.423327880859375,-1.8459516918122767,3.5567046395838258,-1.0380144299715757
1646167741985310000,12.43331005859375,-1.9894741736926138,3.826145265331864,-0.6026017362564802
1646167741995292000,12.4432919921875,-2.0137737715601918,4.128371723872423,-0.22190555211305618
1646167742005274000,12.453274169921874,-1.9801061874970793,4.443093506848812,0.14559855750203132
1646167742015256000,12.463256103515626,-1.9367662274643778,4.7179438826858995,0.5410919132828712
1646167742025238300,12.47323828125,-1.9682851090610025,4.96843080163896,0.9615157121807336
1646167742035220200,12.48322021484375,-1.9066282788321374,5.246193850052356,1.4098276349574326
1646167742045201200,12.493201171875,-1.8293831265881657,5.561502493005991,1.853892421683669
1646167742055183000,12.50318310546875,-1.7095087929293513,5.861213169333339,2.4258213717788455
1646167742065165300,12.513165283203126,-1.5884421807460487,6.198485806813836,3.145698072850704
1646167742075147300,12.523147216796875,-1.4807017908647655,6.491145980107784,3.9248108067452905
1646167742085129200,12.533129150390625,-1.3820689826771617,6.8240323653280734,4.644253208053112
1646167742095111200,12.543111083984375,-1.2762377874180675,7.087267122173309,5.3644350295513865
1646167742105093000,12.553093017578124,-1.2526043983742594,7.202469372367858,6.008811960741877
1646167742115075000,12.563074951171876,-1.239633857642114,7.215681905162334,6.467651122751832
1646167742125057300,12.573057373046876,-1.1076724880874156,7.3587588352322575,6.669085549244285
1646167742135039000,12.5830390625,-0.9000839228793979,7.612168363633751,6.620102030366659
1646167742145021200,12.593021240234375,-0.6110974696621299,7.848256170356273,6.516191574037075
1646167742155003100,12.603003173828125,-0.30889994495511053,8.126991278672218,6.392517848095298
1646167742164985000,12.612985107421874,-0.14846505284905434,8.361019230255485,6.2195005377918475
1646167742174967300,12.62296728515625,-0.042832595032453534,8.521487440109253,6.028332069247961
1646167742184949200,12.63294921875,-0.04008548828139901,8.50903537029326,5.829907345965505
1646167742194931200,12.64293115234375,-0.1740399313494563,8.195907578510045,5.6753609273761505
1646167742204913200,12.6529130859375,-0.22467940074056386,7.942291713881493,5.468491031831503
1646167742214895400,12.662895263671874,-0.12491086652129887,7.81980164476633,5.1368976090312
