time,seconds_elapsed,z,y,x,a,ave,std
1.64617E+18,0.015713135,-2.220643083,-0.669990388,0.11668679,2.32244669,2.257456695,0.700519942
1.64617E+18,0.025695068,-2.820906731,-0.495710218,0.478688649,2.90385713,2.309655041,0.722519852
1.64617E+18,0.035677002,-3.061237582,-0.382541812,0.738639927,3.172239385,2.326852986,0.738332561
1.64617E+18,0.045658936,-2.825606872,-0.489158751,0.642667789,2.93876715,2.285339914,0.700325505
1.64617E+18,0.055641113,-2.522249948,-0.492501778,0.571178643,2.632593368,2.235279503,0.669020586
1.64617E+18,0.065622803,-2.262108481,-0.489878151,0.732629215,2.427727528,2.230928183,0.666559278
1.64617E+18,0.07560498,-1.833960225,-0.49457157,0.852425077,2.081979745,2.251105147,0.675208772
1.64617E+18,0.085586914,-0.961822586,-0.100438835,0.830538677,1.27474905,2.302479046,0.679914054
1.64617E+18,0.095568848,0.218738613,-0.574838262,0.616266543,0.870672188,2.443105936,0.592632664
1.64617E+18,0.105551025,1.107219484,-1.291556645,0.952172276,1.949534712,2.638163371,0.283214255
1.64617E+18,0.115532715,2.066646699,-1.283522976,1.473880274,2.844430149,2.716718091,0.166005565
1.64617E+18,0.125513916,2.155087784,-1.188135433,1.845183338,3.075836588,2.678220422,0.176247692
1.64617E+18,0.13549585,1.499494462,-1.013242685,2.080024944,2.757108657,2.609133737,0.138130424
1.64617E+18,0.145478027,0.684886636,-0.869253608,2.172548621,2.438163049,2.522363962,0.247308426
1.64617E+18,0.155459961,-0.014627076,-0.508702386,2.53857126,2.589080167,2.410283744,0.439424338
1.64617E+18,0.165442139,-0.069228435,-0.093045071,2.626938403,2.629497164,2.298527894,0.515300869
1.64617E+18,0.175424072,0.648220163,0.20900077,2.504772451,2.595718732,2.146346876,0.610927219
1.64617E+18,0.185406006,1.525668183,0.211295019,2.194435751,2.681017952,2.01579344,0.639762286
1.64617E+18,0.195387939,2.099541253,0.033246728,1.884211572,2.821246545,1.946228212,0.600247184
1.64617E+18,0.205370117,2.092770151,-0.161101247,1.753577067,2.735081909,1.947009121,0.60138905
1.64617E+18,0.215351807,1.524743469,-0.478585188,1.869498572,2.459453464,1.975832682,0.643875839
1.64617E+18,0.225333984,1.213424773,-0.628437896,1.954673056,2.384969732,2.04820507,0.729189647
1.64617E+18,0.235314941,1.061931312,-0.533309443,1.468930397,1.889410909,2.201600517,0.920220268
1.64617E+18,0.245296875,1.099793718,-0.243793851,0.682977295,1.317360865,2.483346572,1.176994697
1.64617E+18,0.255278809,1.26792384,0.075647362,0.742982267,1.471521674,2.869853638,1.352213923
1.64617E+18,0.265260986,0.429347695,0.189630591,1.00333007,1.107686975,3.219164957,1.396331518
1.64617E+18,0.275242676,1.105569378,-0.069613488,0.66139704,1.290184379,3.459206939,1.206083068
1.64617E+18,0.285224854,1.918652186,-0.429770596,0.275223301,1.98536567,3.518202025,1.109070242
1.64617E+18,0.295207275,2.674894917,-0.916709479,0.09020371,2.829055636,3.494109105,1.144168706
1.64617E+18,0.305188965,2.51780992,-1.598875604,0.494650188,3.023317515,3.433044327,1.193274854
1.64617E+18,0.315171143,1.655790939,-2.396528496,1.283598672,3.183177346,3.339023145,1.257183646
1.64617E+18,0.325153076,0.71448098,-3.139084792,2.234643259,3.918924201,3.228193168,1.313622871
1.64617E+18,0.33513501,-0.386207641,-3.656443948,2.93869023,4.706871461,3.001408705,1.369376372
1.64617E+18,0.345116943,-1.035836501,-3.587850596,3.593322598,5.182431519,2.623856269,1.367589481
1.64617E+18,0.355098145,-0.741253251,-3.030207361,3.862122003,4.964634871,2.237215696,1.112304536
1.64617E+18,0.365079834,0.301708572,-2.097181684,2.795999669,3.508106787,1.860538881,0.677848841
1.64617E+18,0.375062012,1.20841542,-0.705262339,1.255884443,1.880135242,1.683918274,0.397798584
1.64617E+18,0.385043945,1.701322272,0.316555136,0.219895381,1.744436472,1.71228194,0.420255942
1.64617E+18,0.395025879,2.198047804,0.292646145,-0.065402739,2.21840786,1.69331874,0.422648765
1.64617E+18,0.405007813,2.014291658,-0.485619325,0.214784322,2.08310569,1.569367704,0.432129645
1.64617E+18,0.41498999,1.703788954,-1.040526705,0.565264816,2.074877571,1.517454835,0.397053294
1.64617E+18,0.42497168,1.226405835,-0.997418362,0.476601613,1.651079574,1.508803613,0.385590633
1.64617E+18,0.434952637,-0.179857385,-0.907359175,-0.108434656,0.931347103,1.573194716,0.452016233
1.64617E+18,0.444934814,-0.948643371,-0.758862558,-0.506090158,1.316025788,1.753417512,0.515062946
1.64617E+18,0.454916748,-1.173299099,-0.232938257,-0.063195584,1.197866724,1.928148285,0.622266692
1.64617E+18,0.464897705,-1.495753522,0.040982291,0.891773483,1.741900712,2.109743848,0.647129501
1.64617E+18,0.474879639,-1.380004744,-0.298119315,1.639701389,2.163771907,2.278279629,0.741906945
1.64617E+18,0.484862061,-0.975205215,-0.193245421,1.195427928,1.554804469,2.359983745,0.769281791
1.64617E+18,0.49484375,-0.577596474,0.65091627,0.448252886,0.978897506,2.457785868,0.721377354
1.64617E+18,0.504825928,-0.057809215,1.468004806,0.536324553,1.563976996,2.613662211,0.527271065
1.64617E+18,0.514807861,-0.231758838,1.737950167,0.937770679,1.988365356,2.758306936,0.40329987
1.64617E+18,0.524789795,-0.726366063,1.759295591,1.282284374,2.294990599,2.908235447,0.366176763
1.64617E+18,0.534771729,-1.126603399,2.312200692,0.925702641,2.733575065,3.008602404,0.318823019
1.64617E+18,0.544753906,-1.771894522,2.491197223,0.195801974,3.063333513,3.057382098,0.31021242
1.64617E+18,0.554735596,-1.98933608,2.260946159,-0.117429279,3.013822359,3.040331146,0.314078662
1.64617E+18,0.564717773,-1.858145403,2.876603484,0.136194769,3.427258519,3.057583724,0.316874706
1.64617E+18,0.574699707,-1.179882277,2.72390357,0.271060336,2.980813069,3.04807221,0.306906281
1.64617E+18,0.584681641,-0.91378687,2.361595714,0.055364744,2.532825698,3.10600938,0.341479572
1.64617E+18,0.594662598,-0.903736892,2.360414249,-0.226775788,2.537660942,3.267502821,0.407674712
1.64617E+18,0.604644775,-1.527026904,2.589424665,-0.160383454,3.010424241,3.521645427,0.613617972
1.64617E+18,0.614626709,-1.700556402,3.044512073,-0.052535074,3.487650466,3.70329471,0.698404789
1.64617E+18,0.624608887,-0.238515034,3.247961639,-0.524418426,3.29866017,3.700442526,0.699337242
1.64617E+18,0.634591064,1.570637644,2.695415435,-0.803162887,3.221372005,3.709528805,0.694632427
1.64617E+18,0.644572754,1.946541479,1.70192126,-1.297255149,2.892823988,3.746199636,0.677358639
1.64617E+18,0.654554932,1.851646104,1.404782334,-2.17963478,3.186348141,3.820467458,0.617818266
1.64617E+18,0.664536865,1.275661741,1.75969935,-2.525732529,3.332143377,3.813437935,0.625347303
1.64617E+18,0.674518799,0.385198902,2.369454026,-2.629111071,3.56018477,3.806638893,0.630888243
1.64617E+18,0.684500732,-0.711391927,3.307231282,-2.400011808,4.147760107,3.856037924,0.628993771
1.64617E+18,0.69448291,-1.127468345,4.521790611,-2.019739986,5.079087006,3.895654792,0.657930748
1.64617E+18,0.7044646,-0.630638913,4.732540563,-0.710269499,4.826917068,3.818309163,0.551042074
1.64617E+18,0.714446777,-0.560608515,3.199497468,1.189329612,3.45912863,3.712904865,0.437052337
1.64617E+18,0.724428711,-0.378156437,2.543216748,2.208599594,3.389522958,3.840499445,0.52228076
1.64617E+18,0.734409668,-0.074048402,2.882030185,2.13605692,3.588080311,4.008988436,0.613436962
1.64617E+18,0.744391602,-0.092668931,3.291650851,1.540559463,3.635502209,4.304558717,0.955900183
1.64617E+18,0.754373779,0.687442604,2.637441969,1.510333836,3.116052915,4.516009255,1.016465648
1.64617E+18,0.764355469,2.110124022,1.967879743,1.52627667,3.26415296,4.628158086,0.912355041
1.64617E+18,0.774337891,2.952125466,2.240819025,1.643174034,4.054175079,4.680599535,0.845033645
1.64617E+18,0.784319824,3.286411196,2.864043278,1.28220371,4.543928785,4.577698102,0.968658945
1.64617E+18,0.794301758,3.583163607,2.195313557,0.938079307,4.305630713,4.298406421,1.28809849
1.64617E+18,0.804283936,3.058291592,1.833043549,1.233443479,3.772874094,4.031921475,1.514752597
1.64617E+18,0.814265869,2.882382652,3.755615393,0.090294603,4.735074429,3.834545386,1.657513448
1.64617E+18,0.824247803,2.561388365,4.374749162,-0.224778477,5.074412867,3.574853274,1.698996819
1.64617E+18,0.834229736,1.987045193,6.216964297,0.471278957,6.543783121,3.321001615,1.644756757
1.64617E+18,0.844211914,2.109293855,5.299800937,-0.724966718,5.750007589,2.884799379,1.267322891
1.64617E+18,0.854193604,1.076588199,4.069362778,-0.487852491,4.237541223,2.690401583,0.912272721
1.64617E+18,0.864175781,-0.336078021,3.643629474,-0.981966964,3.788567447,2.637740699,0.833218191
1.64617E+18,0.874157715,-0.44887321,2.765024101,-1.142257479,3.025160753,2.545310148,0.747261743
1.64617E+18,0.884139893,-0.474126748,1.649229681,-0.348264572,1.751011972,2.559886039,0.757826314
1.64617E+18,0.894120605,-1.200689648,1.077069845,0.300712547,1.640781252,2.805072722,0.847761175
1.64617E+18,0.904103027,-1.583198435,0.839815332,0.158117847,1.799113207,3.189898701,1.074904231
1.64617E+18,0.914084717,-2.125343218,-0.130073072,-0.194156544,2.138153307,3.523186992,1.108189437
1.64617E+18,0.924066895,-2.21088975,-1.019395654,-0.709625941,2.535896284,3.777212694,1.051274006
1.64617E+18,0.934048828,-1.52504216,0.285498611,-1.533889483,2.181760756,4.037037246,1.03329921
1.64617E+18,0.944030762,-1.401253283,2.533838679,-2.470225162,3.806029633,4.395044437,0.944894145
1.64617E+18,0.954012939,-1.745476471,2.42917945,-2.196228188,3.710932385,4.625349547,1.048276061
1.64617E+18,0.963994873,-2.063333044,1.308161743,-1.495114055,2.864261935,4.895997098,1.123905708
1.64617E+18,0.973976807,-2.724267143,0.596263765,-1.509161869,3.17091966,5.256158117,0.983414493
1.64617E+18,0.98395874,-3.632120823,0.282777077,-2.095692176,4.202878804,5.597668222,0.769744388
1.64617E+18,0.993940918,-4.558595032,-0.13464111,-3.054612027,5.489041039,5.86466381,0.699486224
1.64617E+18,1.003922607,-4.24409186,-0.600977934,-2.822037197,5.131996116,6.021820819,0.770391072
1.64617E+18,1.013904785,-3.388533016,-0.92806294,-3.08934724,4.678410327,6.238928267,0.794574137
1.64617E+18,1.023886963,-3.354965093,-1.166293019,-3.707206751,5.134141805,6.54660178,0.723225346
1.64617E+18,1.033868896,-3.52791226,-1.444147838,-4.320530957,5.761832664,6.878197069,0.758896353
1.64617E+18,1.04385083,-3.285910846,-1.32559277,-4.976591312,6.10908073,7.199558804,0.887620613
1.64617E+18,1.053832764,-2.830702734,-1.347310096,-5.599553699,6.417407895,7.529295221,1.023359483
1.64617E+18,1.063814697,-2.383386836,-1.990941178,-5.671254077,6.465872129,7.863562674,1.144352092
1.64617E+18,1.073796875,-1.952014358,-3.067309596,-5.491531716,6.58602071,8.156666794,1.124008107
1.64617E+18,1.083777832,-1.73528767,-3.664152038,-5.549650727,6.872834688,8.42204718,1.031308701
1.64617E+18,1.093759766,-1.531298882,-3.915605172,-5.672335442,7.060611128,8.705228251,0.952841018
1.64617E+18,1.103741699,-1.33843004,-3.838260066,-6.067223818,7.303070598,8.976103858,0.822979363
1.64617E+18,1.113723877,-1.453254689,-3.583937514,-6.722032711,7.755145457,9.241160847,0.650148891
1.64617E+18,1.123705811,-2.176895126,-3.762631117,-7.246229019,8.450094692,9.548843974,0.600224972
1.64617E+18,1.133687744,-2.656664848,-3.555839547,-7.801079409,8.975450013,9.805934551,0.624639037
1.64617E+18,1.143669922,-2.894380548,-3.681692955,-8.157751159,9.406444904,9.919587657,0.563607034
1.64617E+18,1.153651611,-2.494124508,-3.20091844,-8.876523698,9.760082422,9.891483857,0.594645964
1.64617E+18,1.163634033,-2.709745281,-2.241428681,-8.714083896,9.396913331,9.746742495,0.761703896
1.64617E+18,1.173615723,-3.091836719,-2.227099127,-8.417537236,9.239824562,9.592236598,0.950338263
1.64617E+18,1.1835979,-3.206572521,-2.425698038,-8.832554792,9.704645406,9.467799923,1.063112954
1.64617E+18,1.193579834,-3.59530062,-2.709645328,-8.67018864,9.769367195,9.287923619,1.155942358
1.64617E+18,1.203561768,-4.282099812,-2.834950454,-8.526525434,9.953640483,9.073776025,1.242069038
1.64617E+18,1.213543701,-5.623273597,-2.530840082,-8.905355825,10.83197673,8.795244325,1.323183427
1.64617E+18,1.223525879,-5.795819783,-2.142217781,-9.12588775,11.02100046,8.350605081,1.311079168
1.64617E+18,1.233507813,-4.87107342,-1.442705822,-8.743191917,10.11198107,7.807700749,1.213299702
1.64617E+18,1.243489746,-4.251515288,-1.154108661,-7.99160198,9.125406909,7.300743053,1.203663502
1.64617E+18,1.253471924,-3.578939268,-2.031412889,-7.222535424,8.312668799,6.858876318,1.26234116
1.64617E+18,1.263453613,-2.982897036,-3.909363647,-6.121341192,7.851854357,6.485871219,1.327085689
1.64617E+18,1.273435791,-2.5173575,-5.51143644,-5.216735116,7.995457815,6.101512518,1.428525784
1.64617E+18,1.283417969,-2.158078782,-6.186392633,-4.424275994,7.905882361,5.688314471,1.418495877
1.64617E+18,1.293399902,-1.825726212,-6.463989093,-3.615009529,7.627891261,5.306242927,1.277262448
1.64617E+18,1.303381836,-1.574766268,-6.313265448,-3.007931524,7.168323477,4.991824027,1.030141899
1.64617E+18,1.31336377,-1.362641959,-5.553706725,-2.841695837,6.38558429,4.750599838,0.731331448
1.64617E+18,1.323344727,-1.40777874,-4.414131032,-3.131068659,5.591957143,4.613886022,0.505976054
1.64617E+18,1.333326904,-1.511837664,-3.40461029,-3.398354737,5.042404116,4.581873385,0.4501264
1.64617E+18,1.343308838,-1.628750372,-2.264458843,-3.791147017,4.706739565,4.682862354,0.622430534
1.64617E+18,1.353290771,-1.834740562,-1.228585517,-4.015556077,4.582617801,4.990855139,1.120653286
1.64617E+18,1.363272705,-2.186461704,-0.794578014,-3.264083045,4.008267347,5.433328062,1.629919152
1.64617E+18,1.373254883,-2.72161166,-0.286363119,-2.727138314,3.863477352,5.894601703,1.804691358
1.64617E+18,1.383236572,-3.332674643,0.33194472,-2.339162495,4.085166918,6.259141875,1.723967485
1.64617E+18,1.39321875,-3.740900054,0.912789383,-2.296969366,4.483702259,6.511269056,1.564589587
1.64617E+18,1.403200928,-3.857066473,1.248310208,-2.486980482,4.756081588,6.634170394,1.444126684
1.64617E+18,1.413182617,-3.893357684,1.439406781,-2.820403458,5.018446134,6.650798143,1.423212366
1.64617E+18,1.423165039,-3.876936418,1.606967579,-3.190488816,5.271830771,6.566685752,1.537468553
1.64617E+18,1.433146973,-4.280633246,2.318141334,-3.596200784,6.052293806,6.411981699,1.726223703
1.64617E+18,1.443129395,-5.224117627,3.997870782,-4.166270954,7.786667415,6.228977753,1.847406527
1.64617E+18,1.453111572,-6.1027306,5.106434082,-4.220581806,9.007347034,5.943227797,1.804873599
1.64617E+18,1.463093262,-6.54816609,4.484587547,-3.366259225,8.621003757,5.599878353,1.488099796
1.64617E+18,1.473075439,-6.020583647,3.68808704,-2.556139943,7.508879069,5.330907357,1.113714216
1.64617E+18,1.483057373,-5.051349323,3.623654316,-2.235627886,6.606438725,5.183239484,0.890718059
1.64617E+18,1.493039307,-3.975850089,3.457723749,-2.20723415,5.712715646,5.090711257,0.779140367
1.64617E+18,1.503021484,-3.025608051,3.215337719,-2.176446213,4.922359073,5.060255976,0.759947888
1.64617E+18,1.513003418,-2.208016825,2.977502484,-1.925918378,4.177322221,5.120260043,0.770309311
1.64617E+18,1.522985352,-1.592129783,2.97316007,-1.580982074,3.724790245,5.278745886,0.721492692
1.64617E+18,1.532967529,-1.288277915,3.770230486,-1.397545661,4.222254348,5.514456596,0.536674557
1.64617E+18,1.542949463,-1.174611935,4.637500519,-1.18767483,4.929167857,5.736663932,0.39765669
1.64617E+18,1.552931396,-1.024482748,5.396733371,-0.94527068,5.573852585,5.951050558,0.474923945
1.64617E+18,1.562913574,-0.870734202,5.852773842,-0.408786553,5.9312938,6.178329961,0.720414766
1.64617E+18,1.572895264,-0.966281173,5.941022035,0.397490667,6.032200341,6.436364073,0.995361418
1.64617E+18,1.582877441,-1.112077445,5.408275925,1.337674837,5.681156457,6.73400131,1.243964357
1.64617E+18,1.592859375,-1.127477259,4.857575933,2.093078194,5.408162834,7.070531953,1.363119244
1.64617E+18,1.602841309,-0.86098803,4.676495728,2.80819981,5.522399737,7.440311132,1.363563299
1.64617E+18,1.612823486,-0.544483309,4.59943733,3.428037343,5.762180651,7.814078631,1.297273397
1.64617E+18,1.62280542,-0.451186017,4.776670797,3.737555712,6.081897354,8.183709164,1.181385018
1.64617E+18,1.632787354,-0.446468487,5.251214309,3.708742875,6.444327702,8.542036839,1.022244777
1.64617E+18,1.642769287,-0.631523879,5.943935876,3.781351015,7.073034116,8.89064551,0.822299973
1.64617E+18,1.652751709,-1.008811132,6.743039843,3.883758081,7.846646612,9.206647583,0.65280556
1.64617E+18,1.662733398,-1.319752812,7.412498024,3.970019483,8.511634928,9.464123229,0.567859328
1.64617E+18,1.672715576,-1.232505905,7.75375184,4.41753821,9.008572708,9.65397818,0.534040354
1.64617E+18,1.682697266,-1.172822129,7.664228806,4.660748416,9.046462885,9.808321015,0.548057547
1.64617E+18,1.692679443,-1.076263789,7.60375534,4.893155488,9.105954626,9.972605248,0.541246988
1.64617E+18,1.702661377,-0.795888512,7.702199348,5.078550049,9.260074725,10.09369253,0.463709751
1.64617E+18,1.712643311,-0.477269722,7.766196896,5.37785799,9.458485987,10.154688,0.383166987
1.64617E+18,1.722625488,-0.160365334,7.839410601,5.650974674,9.665174099,10.18979942,0.330186253
1.64617E+18,1.732607422,0.090367093,8.031465204,5.839565986,9.930414414,10.20972541,0.302801935
1.64617E+18,1.742589355,0.42880935,8.239231756,6.053643036,10.23305484,10.19838647,0.314929102
1.64617E+18,1.752571289,0.582922053,8.475196229,6.036297934,10.42140307,10.15787807,0.333376649
1.64617E+18,1.762553711,0.577224134,8.774466176,5.572027979,10.41018444,10.08063728,0.352314472
1.64617E+18,1.7725354,0.669485069,9.25917277,5.016396668,10.55200105,9.981394884,0.383870899
1.64617E+18,1.782516602,0.914302126,9.479911616,4.85351146,10.68930522,9.841004357,0.40561924
1.64617E+18,1.792498535,1.17184247,8.879405391,5.120534503,10.31682744,9.668895664,0.372987509
1.64617E+18,1.802480469,1.437903975,8.260756775,5.206708227,9.870029428,9.519197152,0.383167895
1.64617E+18,1.812462402,1.87980077,8.13823748,5.144287719,9.809600214,9.416180494,0.412366809
1.64617E+18,1.82244458,2.404515549,8.120316039,5.058243759,9.864433969,9.321014555,0.420327342
1.64617E+18,1.83242627,2.819208111,7.937596834,5.041884745,9.81702499,9.216565176,0.401674606
1.64617E+18,1.842408447,2.63883693,8.143444985,4.828028059,9.827970875,9.105711156,0.372576495
1.64617E+18,1.852390381,2.037082751,8.400572073,4.287632312,9.648995187,8.950121922,0.363226732
1.64617E+18,1.862372314,1.45499671,8.456738781,3.880820274,9.417760468,8.803405744,0.347264111
1.64617E+18,1.872354248,0.772611828,8.288338609,3.793964997,9.148095777,8.711348785,0.289398446
1.64617E+18,1.882336426,-0.016928338,8.209054645,3.611104338,8.968218289,8.644732189,0.255933981
1.64617E+18,1.892318359,-0.608858459,8.024246944,3.609760522,8.819842326,8.55631249,0.280463017
1.64617E+18,1.902300537,-1.09918976,8.077217486,3.419578142,8.839862845,8.437680207,0.377883288
1.64617E+18,1.912282715,-1.223603053,8.229939027,3.038752194,8.857940829,8.293740936,0.462041828
1.64617E+18,1.922264404,-1.185842938,8.345169919,2.596778827,8.819940177,8.087896399,0.602125802
1.64617E+18,1.932246582,-1.27166858,8.404398938,1.893843908,8.708484784,7.795313273,0.839423692
1.64617E+18,1.942228516,-1.459282863,8.068071472,1.097269167,8.272078541,7.417603952,1.139642195
1.64617E+18,1.952210449,-1.681428361,8.005255243,0.176309338,8.181833402,6.99747217,1.472887268
1.64617E+18,1.962192383,-1.812903701,8.258074989,-0.848428262,8.497190881,6.52724845,1.745153441
1.64617E+18,1.972174316,-1.878826372,8.108201238,-1.634080042,8.481929818,6.013980875,1.842372877
1.64617E+18,1.98215625,-1.99943998,7.566445308,-2.025474146,8.084021298,5.513881467,1.782356016
1.64617E+18,1.992138428,-2.116906229,6.983897349,-2.239309205,7.633519495,5.089987417,1.617106828
1.64617E+18,2.002120361,-2.311000814,6.595930881,-2.433090486,7.400470138,4.768337345,1.381994523
1.64617E+18,2.012102295,-2.426492987,5.818636595,-2.547300218,6.799495455,4.533661546,1.081742901
1.64617E+18,2.022085449,-2.305436312,4.782341828,-2.560212891,5.894108923,4.404174991,0.856900555
1.64617E+18,2.032067383,-2.090989259,3.737199154,-2.445348495,4.931391574,4.386516145,0.827323423
1.64617E+18,2.042049561,-2.041085557,2.641218273,-2.330027586,4.070760711,4.483744141,0.935680441
1.64617E+18,2.05203125,-2.059989579,1.593493765,-2.307555058,3.479596211,4.688484885,1.040988842
1.64617E+18,2.062012451,-2.125903921,0.938279798,-2.433130818,3.364515127,4.973896339,1.061477133
1.64617E+18,2.071995605,-2.236883439,0.594215601,-2.600033445,3.480935738,5.28974929,1.003965076
1.64617E+18,2.081977295,-2.441530398,0.38201545,-2.945783403,3.845080798,5.626299799,0.899904348
1.64617E+18,2.091959473,-2.753197469,0.170536599,-3.449764606,4.417018777,5.979406427,0.821015214
1.64617E+18,2.101941406,-2.974997223,0.29580607,-4.074542519,5.053712145,6.331504094,0.830418445
1.64617E+18,2.11192334,-2.868620669,0.085197573,-4.697308506,5.504629903,6.71071222,1.007316156
1.64617E+18,2.121905518,-2.67692087,-0.705627226,-5.002621825,5.717520463,7.141053141,1.281940898
1.64617E+18,2.131887451,-2.483620065,-1.415651811,-5.165355642,5.903671534,7.610176418,1.5127583
1.64617E+18,2.141869385,-2.523233698,-1.869531305,-5.250726233,6.118168155,8.079055944,1.633027667
1.64617E+18,2.151851563,-2.699026318,-2.167200831,-5.30418602,6.333710749,8.528136858,1.649438634
1.64617E+18,2.161833252,-2.904479333,-2.177916871,-5.419482379,6.523044637,8.953247366,1.575236841
1.64617E+18,2.17181543,-3.231924988,-1.933897686,-5.717381622,6.846440827,9.36913847,1.42009169
1.64617E+18,2.181797363,-3.626881169,-1.578236575,-6.225949568,7.376147078,9.77012751,1.200267507
1.64617E+18,2.191779297,-4.242155339,-0.913782486,-6.646870795,7.937995447,10.15083154,0.960346875
1.64617E+18,2.201761475,-5.042069454,-0.252996271,-7.26371733,8.845793403,10.52036647,0.718213229
1.64617E+18,2.211743408,-5.512088181,-0.108018476,-8.111895416,9.808039119,10.82129632,0.568331916
1.64617E+18,2.221725342,-5.353159018,-0.688305505,-8.90011617,10.40875323,11.04192904,0.560352523
1.64617E+18,2.231707275,-4.697131396,-1.564818875,-9.364221875,10.59246679,11.22327042,0.616697066
1.64617E+18,2.241689697,-3.948620721,-2.386046411,-9.553301846,10.60897729,11.40733229,0.673060491
1.64617E+18,2.251671387,-3.401373793,-3.129877403,-9.522229247,10.58481583,11.58591773,0.674459856
1.64617E+18,2.261653564,-3.089295218,-3.832604817,-9.480061838,10.68195568,11.74680057,0.604752397
1.64617E+18,2.271635498,-2.835020012,-4.242767334,-9.582354338,10.85633123,11.8665514,0.48964854
1.64617E+18,2.281617432,-2.675286546,-4.342948541,-9.952151527,11.18318739,11.91553088,0.40297206
1.64617E+18,2.291599365,-2.701325828,-4.20078288,-10.50671082,11.63334476,11.8729117,0.49107819
1.64617E+18,2.301581299,-2.725051571,-3.839189456,-10.88016186,11.85509189,11.72443206,0.71464343
1.64617E+18,2.311563477,-2.892038954,-3.698934013,-11.05888761,12.01436629,11.4966751,0.958152878
1.64617E+18,2.32154541,-3.217256412,-3.828461726,-11.15228719,12.22216706,11.18964465,1.203566501
1.64617E+18,2.331527344,-3.567505435,-4.269213442,-11.11882799,12.43308547,10.80610073,1.407298961
1.64617E+18,2.341509277,-3.61513111,-4.724028171,-10.87410855,12.39483166,10.34782762,1.542534227
1.64617E+18,2.351491699,-3.286277925,-4.742853283,-10.74200544,12.19364427,9.828736333,1.636871957
1.64617E+18,2.361473389,-2.937178072,-4.3966813,-10.63784948,11.87946392,9.252382036,1.715505343
1.64617E+18,2.371455566,-2.703299174,-4.196777152,-10.18890627,11.34612603,8.630065282,1.777275365
1.64617E+18,2.3814375,-2.626121241,-4.064434966,-9.607122868,10.75699559,8.006122261,1.809175907
1.64617E+18,2.391419434,-2.821353891,-3.858945127,-8.952180704,10.1485484,7.400483464,1.800619727
1.64617E+18,2.401401367,-3.132808196,-3.632219023,-8.289839077,9.577522339,6.836513973,1.733532844
1.64617E+18,2.411383545,-3.437940313,-3.288672127,-7.573733711,8.944061733,6.384710366,1.538011599
1.64617E+18,2.421365234,-3.765834881,-2.858604302,-6.927053764,8.386727893,6.035604249,1.29436663
1.64617E+18,2.431347412,-4.074773405,-2.381960018,-6.273001826,7.85035437,5.792602371,1.031590648
1.64617E+18,2.441329834,-4.193299831,-1.849265931,-5.558137985,7.203918782,5.658942147,0.821514199
1.64617E+18,2.451312012,-3.978645273,-1.281872286,-4.886040103,6.430101294,5.62339144,0.759216853
1.64617E+18,2.461294189,-3.540990938,-0.710638917,-4.353167152,5.656296381,5.706291575,0.878643746
1.64617E+18,2.471276123,-3.215654822,-0.202669521,-3.961922686,5.106695824,5.934056468,1.102783819
1.64617E+18,2.481258057,-2.984962736,0.252316472,-3.622436464,4.700607629,6.207879484,1.199100819
1.64617E+18,2.491240967,-2.810907315,0.909718889,-3.406019865,4.508853481,6.458926507,1.117260945
1.64617E+18,2.501223145,-2.683850961,2.078141907,-3.751889066,5.059486271,6.671221266,0.908797577
1.64617E+18,2.511205078,-2.308465158,2.67437177,-4.153786151,5.453000563,6.761968864,0.779427364
1.64617E+18,2.521187012,-2.106771789,3.20941622,-4.554508055,5.956709114,6.718397612,0.859453243
1.64617E+18,2.531168945,-1.94018948,3.690155663,-5.004736041,6.513752135,6.536418781,1.146267375
1.64617E+18,2.541150879,-1.953279263,3.99657139,-5.207001073,6.848411708,6.243014166,1.449829751
1.64617E+18,2.551132813,-2.469355393,4.43670819,-5.187723541,7.259102641,5.90680396,1.646894157
1.64617E+18,2.561115234,-3.429721935,5.163265976,-4.952290399,7.933945316,5.557056995,1.693293271
1.64617E+18,2.571096924,-4.300004886,4.920931384,-4.340190766,7.844925978,5.175220605,1.537617784
1.64617E+18,2.581079102,-4.710953001,4.147888325,-3.549871579,7.211077864,4.873530829,1.254022849
1.64617E+18,2.591061279,-4.806988778,3.5864305,-2.830399367,6.631801069,4.72157886,1.034402322
1.64617E+18,2.601042969,-4.469768748,3.226384305,-2.283911147,5.966962248,4.673399033,0.952266494
1.64617E+18,2.611025146,-3.741145846,2.844032171,-1.757409485,5.017288045,4.737247507,1.052941212
1.64617E+18,2.62100708,-2.989020487,2.562803492,-1.269609601,4.136920806,4.930817056,1.246724657
1.64617E+18,2.630989014,-2.424135611,2.517964233,-0.773121969,3.579705982,5.241075596,1.3885386
1.64617E+18,2.640970947,-2.251855967,2.641547358,-0.325157252,3.486309651,5.62874733,1.411563574
1.64617E+18,2.650953125,-2.227331182,3.03064546,0.063770169,3.761632988,6.030126016,1.312477707
1.64617E+18,2.660934814,-2.137884135,3.474844102,0.541221093,4.115581415,6.396438739,1.126191419
1.64617E+18,2.670917236,-2.141819721,4.216005584,0.97353056,4.828028226,6.740337939,0.874034915
1.64617E+18,2.68089917,-2.259526648,5.041908126,1.366578276,5.69155817,7.052772644,0.668978471
1.64617E+18,2.690881104,-2.337650336,5.377063625,1.85610133,6.150002802,7.305974423,0.578972028
1.64617E+18,2.700863037,-2.361129996,5.775169794,2.168964918,6.605446981,7.531971375,0.521908119
1.64617E+18,2.710844971,-2.159510276,6.185660228,2.3276819,6.95298354,7.734085761,0.515278849
1.64617E+18,2.720827148,-1.843396162,6.562651712,2.438020344,7.239506205,7.929839214,0.551887767
1.64617E+18,2.730809082,-1.403509538,6.923419791,2.386350362,7.456423317,8.116508418,0.600383882
1.64617E+18,2.740791016,-1.272134736,6.947797861,2.522147072,7.500096517,8.302028046,0.652151144
1.64617E+18,2.750773926,-1.22316941,6.761686092,2.812565019,7.424760211,8.502186522,0.681795473
1.64617E+18,2.760755859,-1.335614982,6.715900492,3.191299548,7.554573423,8.732695758,0.668088472
1.64617E+18,2.770738037,-1.647377915,6.870137698,3.650702189,7.952375272,8.964961453,0.620156092
1.64617E+18,2.780720215,-2.062240281,6.837761615,4.076687714,8.223575962,9.1584494,0.57418238
1.64617E+18,2.790702148,-2.419174773,6.735651487,4.416585439,8.409972323,9.316680108,0.509084125
1.64617E+18,2.800684082,-2.577942609,6.763868696,4.69279892,8.626590841,9.434051114,0.412683674
1.64617E+18,2.81066626,-2.604142049,6.871607771,5.039522107,8.910518068,9.51138871,0.315029642
1.64617E+18,2.820647949,-2.544958039,6.890602394,5.381973024,9.106198241,9.566512094,0.245656094
1.64617E+18,2.830630127,-2.372649169,6.973496366,5.696239465,9.311619606,9.609511909,0.193393258
1.64617E+18,2.840612061,-2.198779626,7.00671533,6.029366088,9.501681271,9.65023222,0.167522271
1.64617E+18,2.850593994,-2.131210064,7.125211361,6.273702084,9.729852574,9.703145559,0.193756164
1.64617E+18,2.860575928,-2.033294465,7.293273094,6.342993062,9.877230371,9.743376732,0.232931934
1.64617E+18,2.870557861,-1.961323599,7.202531916,6.483405741,9.887254739,9.738247328,0.230479726
1.64617E+18,2.880539795,-2.03580674,7.036115612,6.519502306,9.805883045,9.66332935,0.285146571
1.64617E+18,2.890522217,-2.048010534,6.864784062,6.366110318,9.58368238,9.500496159,0.52298705
1.64617E+18,2.90050415,-1.829856297,6.904692879,6.110336983,9.399966802,9.274798358,0.83331929
1.64617E+18,2.910486084,-1.391422794,7.331500826,5.817025653,9.461751909,8.994942592,1.152925004
1.64617E+18,2.920468262,-0.761067228,7.713540826,5.555277335,9.536196394,8.667584349,1.409992582
1.64617E+18,2.930449951,-0.018637919,8.054370864,5.438959232,9.718822712,8.30807625,1.589574664
1.64617E+18,2.940432129,0.649870341,8.421623044,5.410284342,10.03081466,7.938267805,1.647470871
1.64617E+18,2.950414063,1.05080428,8.411669806,5.549808548,10.1321643,7.585794056,1.535305928
1.64617E+18,2.960395996,0.993321302,7.949109577,5.689814985,9.825936334,7.274876338,1.28209574
1.64617E+18,2.97037915,0.604395707,7.250583707,5.528847593,9.13807496,7.022202904,0.963947138
1.64617E+18,2.98036084,0.121407388,6.418812565,5.065219443,8.177551132,6.832745313,0.671197177
1.64617E+18,2.990343262,-0.249530203,5.737471054,4.549698609,7.326704365,6.691389788,0.500146623
1.64617E+18,3.000325195,-0.413873135,5.268667548,3.955812679,6.601409141,6.576438781,0.472239505
1.64617E+18,3.010307129,-0.187340435,5.154622651,3.418802482,6.188169481,6.50012926,0.52115975
1.64617E+18,3.020289063,0.69346961,5.117071211,2.937947303,5.941115403,6.454707127,0.564372016
1.64617E+18,3.030270996,1.833601913,5.167459336,2.486877021,6.020738267,6.427844188,0.593804258
1.64617E+18,3.04025293,2.963182282,5.431426499,2.012013192,6.506077169,6.396677224,0.621870102
1.64617E+18,3.050235107,3.907607158,5.621067027,1.567341671,7.022987124,6.315737053,0.654197619
1.64617E+18,3.060216797,4.339764065,5.7884022,0.969122096,7.299201998,6.173276087,0.639624585
1.64617E+18,3.070198975,4.34220386,5.779487072,0.459427191,7.243499052,5.971619787,0.566574685
1.64617E+18,3.080181152,3.801939629,5.593697374,0.086284199,6.763995877,5.722555964,0.49572547
1.64617E+18,3.090162842,2.721948929,5.541765527,-0.193799402,6.177194293,5.465474583,0.552351017
1.64617E+18,3.100145264,1.540757762,5.626997002,-0.221087806,5.838313931,5.215094923,0.716171163
1.64617E+18,3.110127197,0.360644161,5.722435398,-0.042782326,5.733948153,4.980394575,0.846238725
1.64617E+18,3.120109131,-0.707276236,5.613956318,0.400440165,5.672486011,4.738214056,0.937544997
1.64617E+18,3.130091064,-1.582390772,5.418607934,0.853341753,5.709068632,4.509372719,0.960575739
1.64617E+18,3.140073242,-2.225555405,5.123348392,1.118175177,5.696675463,4.299560468,0.90303631
1.64617E+18,3.150054932,-2.602810508,4.829264908,1.115978544,5.598377461,4.11195236,0.77975996
1.64617E+18,3.160037109,-2.812733362,4.365165633,0.969605495,5.282638998,3.967608698,0.605334078
1.64617E+18,3.170019043,-2.760584657,3.821349263,0.605101736,4.752860817,3.89192692,0.467900916
1.64617E+18,3.180000977,-2.494564069,3.370448493,0.001716156,4.193182071,3.921220785,0.526397763
1.64617E+18,3.189984375,-2.124754605,2.95487155,-0.497998621,3.673397696,4.067168853,0.740396245
1.64617E+18,3.199966064,-2.099679639,2.587989371,-1.040627243,3.491310446,4.319961276,0.961372953
1.64617E+18,3.209948242,-1.986960583,2.142648573,-1.5592741,3.31214296,4.657482796,1.179046209
1.64617E+18,3.219929932,-1.893523444,1.902245241,-2.061062761,3.38407265,5.086419986,1.375464069
1.64617E+18,3.229912109,-1.845832449,1.746863541,-2.565209969,3.610946115,5.569775169,1.532616939
1.64617E+18,3.239894043,-1.772234129,1.536041109,-3.016074499,3.820594388,6.103415504,1.67965543
1.64617E+18,3.249875977,-1.748828558,1.393991768,-3.501702299,4.154940837,6.663149686,1.756535662
1.64617E+18,3.25985791,-1.754541528,1.19400111,-3.997374523,4.525821219,7.222461432,1.75930181
1.64617E+18,3.269840088,-1.77426695,1.026716206,-4.610631509,5.04579947,7.774395105,1.691179113
1.64617E+18,3.279822021,-1.769754587,0.927138811,-5.287814147,5.652662746,8.30626783,1.582261977
1.64617E+18,3.289803955,-1.628569024,0.615585721,-5.95190817,6.201321933,8.80517246,1.447727083
1.64617E+18,3.299786133,-1.196118833,0.2467074,-6.757041481,6.866525641,9.265812767,1.267573321
1.64617E+18,3.309767822,-0.551980387,-0.265399826,-7.576800698,7.601514864,9.677930986,1.075980989
1.64617E+18,3.319750244,0.173790012,-1.036364325,-8.150159388,8.217624476,10.02434419,0.893956451
1.64617E+18,3.329732178,0.934078839,-1.507407135,-8.769850791,8.947349465,10.31112116,0.709278652
1.64617E+18,3.339714111,1.533590208,-2.00281574,-9.073827893,9.417936209,10.51726168,0.568563291
1.64617E+18,3.349696045,1.977540429,-2.183081121,-9.292369521,9.748058302,10.66638711,0.442193387
1.64617E+18,3.359677979,2.305339135,-2.210754141,-9.523821485,10.04515794,10.76744017,0.319124753
1.64617E+18,3.369659912,2.374097614,-2.234451828,-9.838409412,10.36452672,10.81931384,0.226105387
1.64617E+18,3.37964209,2.303993566,-1.993398508,-10.19627125,10.64170904,10.81922969,0.22627474
1.64617E+18,3.389625,1.974324389,-1.639292809,-10.49865144,10.807725,10.76742373,0.306183323
1.64617E+18,3.399606934,1.545228039,-1.401533854,-10.78784949,10.98770783,10.6774843,0.399125026
1.64617E+18,3.409589111,1.066270803,-1.463795957,-10.91645132,11.0656469,10.53784469,0.498151379
1.64617E+18,3.419571045,0.645975014,-1.582508261,-10.95282378,11.08539421,10.35494327,0.596791093
1.64617E+18,3.429553223,0.292174399,-1.643587876,-10.88144898,11.00875464,10.12763138,0.69936792
1.64617E+18,3.4395354,0.049044894,-1.473011529,-10.80917518,10.90919046,9.839285211,0.853973113
1.64617E+18,3.449517334,-0.07066402,-1.38019296,-10.66945692,10.75858898,9.478409353,1.062613095
1.64617E+18,3.459499512,-0.180603272,-1.579675668,-10.44355674,10.56389465,9.043622115,1.310455853
1.64617E+18,3.469481201,-0.245478151,-1.836453211,-10.1967225,10.36368514,8.547863748,1.556247445
1.64617E+18,3.479463379,-0.280664031,-2.310532028,-9.85245898,10.12364947,8.011809695,1.749667056
1.64617E+18,3.489445313,-0.276035823,-2.909908957,-9.467378298,9.908330724,7.479089866,1.834505576
1.64617E+18,3.499427246,-0.190161337,-3.449181838,-8.947638969,9.591311683,6.985628927,1.777490659
1.64617E+18,3.50940918,-0.082623338,-3.863668648,-8.389315935,9.236632714,6.581287958,1.588624888
1.64617E+18,3.519391113,-0.04109072,-4.000038774,-7.852018738,8.812275353,6.275393947,1.319606469
1.64617E+18,3.529373535,-0.042709772,-3.887429463,-7.134875846,8.125292935,6.056372528,1.030452299
1.64617E+18,3.539355469,-0.110957452,-3.569772211,-6.367159535,7.300431887,5.944992321,0.844161317
1.64617E+18,3.549337402,-0.23481881,-3.119420891,-5.595655522,6.410716598,5.939764285,0.835871848
1.64617E+18,3.559319336,-0.417545102,-2.654509716,-4.920361475,5.606310979,6.036441069,0.934804612
1.64617E+18,3.569301514,-0.563777317,-2.029569891,-4.538111632,5.00314461,6.206252961,0.993630696
1.64617E+18,3.579283203,-0.642234147,-1.284088209,-4.576526703,4.796451176,6.407991051,0.931751421
1.64617E+18,3.589265381,-0.723247566,-0.545147911,-4.890565472,4.973721335,6.59448709,0.761640373
1.64617E+18,3.599248291,-0.90309443,0.29327509,-5.466043054,5.547901991,6.709780459,0.570965865
1.64617E+18,3.609230225,-1.078285066,1.098474452,-5.982853928,6.177692606,6.733273748,0.525715451
1.64617E+18,3.619212646,-1.50301153,1.634597929,-6.23864889,6.622061161,6.645148866,0.666477108
1.64617E+18,3.629194336,-1.948351744,1.943902363,-6.448734241,7.01149087,6.481977694,0.831474421
1.64617E+18,3.639176514,-2.316953439,2.142244669,-6.525198472,7.248151527,6.261183718,0.946716902
1.64617E+18,3.649158447,-2.78619373,2.236737308,-6.454564847,7.377484439,6.001028806,0.995926227
1.64617E+18,3.659140381,-3.184250799,2.252312479,-6.175947812,7.30442989,5.707063101,0.979974525
1.64617E+18,3.669122314,-3.37625338,2.286354449,-5.715004371,7.020525515,5.408243949,0.899632403
1.64617E+18,3.679104248,-3.45096463,2.354066634,-5.188797308,6.661411569,5.140859333,0.76849898
1.64617E+18,3.689086182,-3.303568083,2.478447631,-4.525443289,6.126655017,4.938093612,0.586501816
1.64617E+18,3.699068359,-3.187718182,2.854028664,-3.890263809,5.782834887,4.828172516,0.437529726
1.64617E+18,3.709050049,-3.049965078,2.989997224,-3.132083389,5.296443781,4.785972215,0.356210571
1.64617E+18,3.719032227,-2.918283986,3.21931802,-2.454220368,4.990349442,4.837222566,0.450387668
1.64617E+18,3.729014648,-2.748198638,3.500591123,-1.807586598,4.80355111,4.960570843,0.614457567
1.64617E+18,3.738996338,-2.581602593,3.610791035,-1.37420161,4.646602405,5.140198364,0.782011757
1.64617E+18,3.748978516,-2.324734741,3.661521689,-0.939776174,4.437827391,5.370719423,0.928565285
1.64617E+18,3.758960449,-2.05940155,3.737669109,-0.646999681,4.316238374,5.647296369,1.017179383
1.64617E+18,3.768942383,-1.835503071,3.921733299,-0.380207524,4.346679348,5.963884037,1.045901795
1.64617E+18,3.778924316,-1.592461207,4.35046783,-0.095793785,4.633754362,6.299792054,1.011412026
1.64617E+18,3.788906494,-1.612403633,4.752701308,0.295260127,5.027444056,6.627208702,0.946991177
1.64617E+18,3.798888184,-1.895526455,4.93926842,0.865520267,5.360831876,6.928498692,0.865902456
1.64617E+18,3.808870361,-2.113954978,5.242402641,1.33875971,5.808947294,7.210222725,0.762105047
1.64617E+18,3.818853271,-2.067099411,5.580061063,1.823761487,6.223832212,7.462634326,0.668440199
1.64617E+18,3.828835449,-2.09378342,5.816625255,2.310984448,6.599826322,7.678477292,0.575614913
1.64617E+18,3.838817383,-2.155922773,6.001119653,2.768801866,6.951812991,7.854404396,0.479955997
1.64617E+18,3.848799316,-2.066213861,6.15045915,3.129603847,7.20359686,8.004765092,0.402994126
1.64617E+18,3.858781494,-1.995793001,6.334299468,3.446085626,7.482115048,8.137601599,0.329188889
1.64617E+18,3.868763184,-1.930252608,6.466673218,3.719541917,7.705759515,8.236259902,0.258124175
1.64617E+18,3.878745361,-1.835690702,6.597328473,3.954833605,7.90792085,8.30159883,0.189013269
1.64617E+18,3.888727295,-1.707063446,6.668792119,4.154548952,8.040343956,8.328331903,0.14529104
1.64617E+18,3.898709229,-1.604236401,6.693555974,4.416287918,8.178072204,8.334889324,0.133114867
1.64617E+18,3.908691406,-1.463176363,6.766660957,4.638033895,8.333063302,8.343843005,0.125031606
1.64617E+18,3.91867334,-1.404955645,6.694658966,4.844579966,8.382261872,8.369264474,0.144572094
1.64617E+18,3.928655273,-1.390134508,6.611001025,4.923078333,8.359097366,8.429451385,0.234665326
1.64617E+18,3.938637207,-1.396812378,6.706231915,4.956762576,8.455419951,8.540127531,0.386959528
1.64617E+18,3.948619629,-1.510329744,6.784082632,4.948686821,8.531961929,8.630969499,0.456747235
1.64617E+18,3.958601318,-1.622830334,6.682498573,4.9426189,8.468698073,8.633112074,0.456327832
1.64617E+18,3.968583496,-1.678867571,6.556398497,4.906160516,8.359148795,8.561543661,0.527131034
1.64617E+18,3.97856543,-1.652584836,6.445263934,4.749976267,8.175251578,8.427221942,0.703292328
1.64617E+18,3.988547363,-1.421993289,6.617617228,4.459931244,8.105918171,8.256695113,0.917752748
1.64617E+18,3.998529297,-1.002543011,7.130749121,4.062103308,8.267609014,8.03565197,1.161321302
1.64617E+18,4.00851123,-0.44330637,7.752048543,3.667501348,8.587277991,7.748187259,1.3996542
1.64617E+18,4.018493408,0.034359366,8.365767886,3.275264364,8.984130984,7.396087507,1.576043374
1.64617E+18,4.028475342,0.353548942,8.901685612,3.199606189,9.465858828,6.98454985,1.643503125
1.64617E+18,4.038457275,-0.058053837,8.680353475,3.511351002,9.363839627,6.519795042,1.529272785
1.64617E+18,4.048439209,-1.035483158,7.569214773,3.846453309,8.553387674,6.074144017,1.261434107
1.64617E+18,4.058422363,-1.883833679,6.39595659,3.956277958,7.753013951,5.739957023,0.969165909
1.64617E+18,4.068404297,-2.403774375,5.356086303,3.841549755,7.015931603,5.496032345,0.701931101
1.64617E+18,4.078386475,-2.669214825,4.73194289,3.513501458,6.469983291,5.291999832,0.497144786
1.64617E+18,4.088368164,-2.441223231,4.391173935,3.084604429,5.895486738,5.098466009,0.358178335
1.64617E+18,4.098350342,-2.037271844,4.185450871,2.723153044,5.3929619,4.933163222,0.33274213
1.64617E+18,4.10833252,-1.577260715,4.154611204,2.432828036,5.066280477,4.793647546,0.396989539
1.64617E+18,4.118314209,-1.150386717,4.271753774,2.033100988,4.868754413,4.677469583,0.464466025
1.64617E+18,4.128296387,-0.659665393,4.523044703,1.524147842,4.818310748,4.575575008,0.519797514
1.64617E+18,4.13827832,-0.176841837,4.803699089,0.987463223,4.907329375,4.474898352,0.559049114
1.64617E+18,4.148260254,0.257948633,5.18851323,0.415583958,5.211517731,4.361174387,0.57495968
1.64617E+18,4.158242188,0.507174446,5.288169536,0.118989952,5.313767173,4.210225949,0.52813967
1.64617E+18,4.168224365,0.277182618,4.964748898,0.176346162,4.975606475,4.031581825,0.414575335
1.64617E+18,4.178206299,-0.247355927,4.507456381,0.429718281,4.534645056,3.859056596,0.337670198
1.64617E+18,4.188188477,-0.789385998,4.101280888,0.744863843,4.242458877,3.674537826,0.413676503
1.64617E+18,4.198170166,-1.317428753,3.620866146,1.065906061,3.997805135,3.450396786,0.607200355
1.64617E+18,4.208152344,-1.722315083,3.218412011,1.385850547,3.904500846,3.191235039,0.830325816
1.64617E+18,4.218134521,-1.942630736,2.889607635,1.642370316,3.849808659,2.874871321,1.067198263
1.64617E+18,4.228116211,-2.04705148,2.600763805,1.89036425,3.811544192,2.539457984,1.223689962
1.64617E+18,4.238098389,-2.131254634,2.318559851,2.072585441,3.770089722,2.267359544,1.213049804
1.64617E+18,4.248080322,-2.129284795,2.149345441,2.133427156,3.702033359,2.067667117,1.109150911
1.64617E+18,4.258062256,-2.092678381,1.866407035,2.139918272,3.527325933,1.951310618,0.985762136
1.64617E+18,4.268044189,-2.03899706,1.459570448,2.068078193,3.250354183,1.89893532,0.911771348
1.64617E+18,4.278026611,-1.675856845,1.130780392,1.773702448,2.689457349,1.932023472,0.964682501
1.64617E+18,4.288008301,-1.174133942,0.833846195,1.389354171,2.001048476,2.077242269,1.157754764
1.64617E+18,4.297990479,-0.766062552,0.657739686,0.978718776,1.406187673,2.346409474,1.396938513
1.64617E+18,4.307972412,-0.357498264,0.503213726,0.4096949,0.740863667,2.720327827,1.583236952
1.64617E+18,4.317954346,0.038518823,0.40172319,-0.287799874,0.495675285,3.20639527,1.645808955
1.64617E+18,4.327936523,0.317413945,0.436997333,-0.947418798,1.090559792,3.764850672,1.577309926
1.64617E+18,4.337918213,0.552564909,0.347528659,-1.648639314,1.773165456,4.306784616,1.494175422
1.64617E+18,4.347901367,0.898482479,0.343499549,-2.349161326,2.538468365,4.807535697,1.397104123
1.64617E+18,4.357883057,0.9019126,0.206600431,-2.857502478,3.003572953,5.252840589,1.30985281
1.64617E+18,4.367865234,1.267017831,0.073841481,-3.34880014,3.581235699,5.666858961,1.181498645
1.64617E+18,4.377847412,1.434763923,0.026931262,-3.885093713,4.141645322,6.045244644,1.051751211
1.64617E+18,4.387829346,1.621724419,-0.070349548,-4.403031546,4.692720527,6.397171501,0.938614815
1.64617E+18,4.397811523,1.732766188,-0.189275787,-4.841130117,5.145371201,6.726636386,0.857209587
1.64617E+18,4.407793457,1.783778436,-0.305960969,-5.301108513,5.6015381,7.043253808,0.797317621
1.64617E+18,4.417775391,1.796627397,-0.494525392,-5.787638815,6.080229306,7.34967306,0.772794484
1.64617E+18,4.427757324,1.889303342,-0.698300245,-6.190452138,6.509899233,7.631153624,0.771780796
1.64617E+18,4.437739502,1.962768391,-0.860156109,-6.433136274,6.780676265,7.874446084,0.763401015
1.64617E+18,4.447720703,1.877604721,-1.002961237,-6.659578301,6.99151728,8.103778982,0.744612992
1.64617E+18,4.457702881,1.821245121,-1.155214576,-6.810418851,7.143756675,8.343418804,0.733627504
1.64617E+18,4.467685059,1.791255641,-1.182554418,-7.045392559,7.365092533,8.616189711,0.743894595
1.64617E+18,4.477666748,1.886803927,-1.109969659,-7.341494397,7.660913893,8.883821542,0.726879278
1.64617E+18,4.487648926,1.931323452,-0.875090644,-7.70079708,7.987369378,9.104073948,0.652883514
1.64617E+18,4.497630859,2.085052709,-0.690665804,-8.01606656,8.311545412,9.249781486,0.540285586
1.64617E+18,4.507613037,2.176851872,-0.349536491,-8.38057441,8.665730625,9.325697145,0.448690963
1.64617E+18,4.517594971,2.269635369,-0.401640772,-8.591221486,8.895034943,9.337149651,0.432882753
1.64617E+18,4.527577148,2.167803473,-0.957522843,-8.62310131,8.942823832,9.290482853,0.498248677
1.64617E+18,4.537558838,1.974926447,-1.631780533,-8.704856633,9.074005245,9.198635021,0.6229281
1.64617E+18,4.547541016,2.029139683,-2.467811671,-8.827539594,9.387915508,9.050418171,0.789112156
1.64617E+18,4.557522949,2.270970417,-2.885667665,-9.163048145,9.871465738,8.828686531,0.956825271
1.64617E+18,4.567504883,2.536376088,-3.293571005,-9.140520671,10.04141085,8.5154522,1.07018121
1.64617E+18,4.577487061,2.463343585,-3.770792796,-8.774991077,9.863437957,8.151021815,1.108314927
1.64617E+18,4.58746875,2.145322761,-4.096329403,-8.234999233,9.444444753,7.779886425,1.094056128
1.64617E+18,4.597450928,1.866207713,-4.305964672,-7.762317424,9.070702,7.43588478,1.056774049
1.64617E+18,4.607432861,1.665176607,-4.436416513,-7.391771463,8.780255689,7.121364626,0.989298645
1.64617E+18,4.617414795,1.498143632,-4.526510041,-6.950082173,8.428366965,6.840854453,0.869605534
1.64617E+18,4.627396973,1.433728151,-4.430663064,-6.534812103,8.024345508,6.599518464,0.717044989
1.64617E+18,4.63737915,1.332068103,-4.270005469,-6.13421821,7.591836746,6.406518674,0.547184746
1.64617E+18,4.64736084,1.261745444,-4.034054441,-5.792399745,7.170599111,6.26750774,0.3791875
1.64617E+18,4.657343018,1.273075816,-3.580521569,-5.565511144,6.739122423,6.180071606,0.233801672
1.64617E+18,4.667324951,1.388241826,-3.009137977,-5.471823391,6.397106999,6.144009434,0.161388879
1.64617E+18,4.677306885,1.493338862,-2.449512628,-5.442238985,6.152084057,6.152518363,0.176082837
1.64617E+18,4.687288818,1.596184319,-1.768952039,-5.511457482,6.004428306,6.190777088,0.210108315
1.64617E+18,4.697271729,1.626764166,-0.937502968,-5.620167448,5.925500452,6.245467001,0.225125711
1.64617E+18,4.707253906,1.490923617,-0.167341603,-5.783736546,5.975153963,6.281186863,0.19825852
1.64617E+18,4.717236084,1.111904354,0.287628024,-5.904341532,6.015007074,6.262013614,0.233131404
1.64617E+18,4.727218018,0.657117316,0.558162291,-6.033052668,6.094347611,6.177178929,0.401287938
1.64617E+18,4.737199951,0.182590756,0.701672936,-6.159199506,6.201727408,6.022073719,0.635016365
1.64617E+18,4.747181885,-0.334933235,0.584299771,-6.260113703,6.296237771,5.805757219,0.864093238
1.64617E+18,4.757163818,-0.83044077,0.394389194,-6.311901174,6.378500696,5.553817234,1.034783843
1.64617E+18,4.767145996,-1.294288116,0.2557482,-6.346517144,6.482196289,5.294733695,1.116947762
1.64617E+18,4.77712793,-1.556006477,0.251789234,-6.341717051,6.53467131,5.036892592,1.110656239
1.64617E+18,4.787109863,-1.749638851,0.414802452,-6.299729674,6.551327434,4.802161759,1.013062025
1.64617E+18,4.797092041,-1.85289362,0.476181926,-5.984341536,6.282699071,4.598844818,0.828893626
1.64617E+18,4.80707373,-1.844610068,0.668940879,-5.440394818,5.783421477,4.460827558,0.627456469
1.64617E+18,4.817055908,-1.665470914,0.929520738,-4.801726328,5.166660226,4.41475295,0.53938062
1.64617E+18,4.827037842,-1.541753787,1.246424541,-4.08790352,4.543295507,4.490797668,0.676264592
1.64617E+18,4.83702002,-1.471906928,1.66937815,-3.36996334,4.038562408,4.661240921,0.858305147
1.64617E+18,4.847001953,-1.360853761,2.176304175,-2.770610376,3.77683792,4.909822762,0.991590121
1.64617E+18,4.856984131,-1.351703655,2.69618788,-2.291260926,3.787665308,5.211651424,1.057932533
1.64617E+18,4.86696582,-1.274999186,3.231249281,-1.781276098,3.903785263,5.52862017,1.058643344
1.64617E+18,4.876947998,-1.21248077,3.812810567,-1.23546534,4.187362971,5.848962326,1.001644332
1.64617E+18,4.886929932,-1.284175887,4.275867639,-0.693974198,4.518158028,6.160388977,0.91719014
1.64617E+18,4.896911865,-1.469503813,4.67173392,-0.224112707,4.902526469,6.470427177,0.829483132
1.64617E+18,4.906894043,-1.583676135,5.073679229,0.28394086,5.322675401,6.785865242,0.770974507
1.64617E+18,4.916875732,-1.699219746,5.632423703,0.720456547,5.927107402,7.101759602,0.753709542
1.64617E+18,4.92685791,-1.942178023,5.803026938,1.25973352,6.24772804,7.402247071,0.82144751
1.64617E+18,4.936839844,-2.079786167,5.923043895,1.777522299,6.524380814,7.714895932,0.9124701
1.64617E+18,4.946821777,-1.998435625,6.120770114,2.171668916,6.795124548,8.037622418,1.000775514
1.64617E+18,4.956803955,-1.798360212,6.25810061,2.450884501,6.957352768,8.368969839,1.079941997
1.64617E+18,4.966786133,-1.573585242,6.355181512,2.765481197,7.107206822,8.701382853,1.105568023
1.64617E+18,4.976767822,-1.458911399,6.429080277,3.138836955,7.301629483,9.02271608,1.061627327
1.64617E+18,4.98675,-1.424038823,6.625510611,3.480930144,7.618540024,9.324175,0.952510416
1.64617E+18,4.996732178,-1.489538593,6.975926224,3.745861768,8.056907116,9.576010695,0.786757592
1.64617E+18,5.006713867,-1.574901001,7.247711951,4.114391714,8.481619,9.757497866,0.603349175
1.64617E+18,5.016696045,-1.713220799,7.544415847,4.463963276,8.931982093,9.859914335,0.443948655
1.64617E+18,5.026677979,-1.851342737,7.789336364,4.875931382,9.374216648,9.879524476,0.405163748
1.64617E+18,5.036659912,-2.053439427,7.993708597,5.194093076,9.751645682,9.817770393,0.510773341
1.64617E+18,5.046641846,-2.098265242,8.188799792,5.54297841,10.10859875,9.690726173,0.650348395
1.64617E+18,5.056623779,-2.203492918,8.143377765,5.876981232,10.28148291,9.50465482,0.760951865
1.64617E+18,5.066605713,-2.311976381,7.929871208,6.187522514,10.32053909,9.269924483,0.84275885
1.64617E+18,5.076588135,-2.344705516,7.687144986,6.467961504,10.31621869,8.988059383,0.912694205
1.64617E+18,5.086569824,-2.445379474,7.248337974,6.651195088,10.13689697,8.659253203,0.965721633
1.64617E+18,5.096552002,-2.455765844,6.842800194,6.678122258,9.87177883,8.304709438,1.008043171
1.64617E+18,5.106533936,-2.308654251,6.595500089,6.444332206,9.505783685,7.934053624,1.044478752
1.64617E+18,5.116515869,-1.994411192,6.472585072,6.119630297,9.128083506,7.54367683,1.111462258
1.64617E+18,5.126498047,-1.616317591,6.450140601,5.697593802,8.756675822,7.134501192,1.202318364
1.64617E+18,5.13647998,-1.259556994,6.581521248,5.198837056,8.481203481,6.725589012,1.27428335
1.64617E+18,5.146461914,-0.970805811,6.688948188,4.726850827,8.247885215,6.338186884,1.270536963
1.64617E+18,5.156443848,-0.898544877,6.559403524,4.372418965,7.934179547,5.999178949,1.163527318
1.64617E+18,5.166426025,-0.982868881,6.254761821,4.023710741,7.501888083,5.74432592,0.975738126
1.64617E+18,5.176408936,-1.189170037,5.876033722,3.667845632,7.028156889,5.585620655,0.787960914
1.64617E+18,5.186390137,-1.358143625,5.534831928,3.31186011,6.59145932,5.481325348,0.646436759
1.64617E+18,5.196373047,-1.494420227,5.246113771,2.873141945,6.165220689,5.413433235,0.555541045
1.64617E+18,5.20635498,-1.49238463,4.884658586,2.301190784,5.602015745,5.350074819,0.499490068
1.64617E+18,5.216336914,-1.268100366,4.581932361,1.662049415,5.03632713,5.267702822,0.518701153
1.64617E+18,5.226318848,-0.853166104,4.455825855,1.097170968,4.667554026,5.164217063,0.642901847
1.64617E+18,5.236301025,-0.365054963,4.528078313,0.767704036,4.6071822,5.014176063,0.874627428
1.64617E+18,5.246282715,0.036458092,4.832501697,0.493837995,4.857805864,4.795213203,1.172479775
1.64617E+18,5.256264893,0.238731307,5.379603957,0.089925186,5.385649256,4.500990545,1.454984268
1.64617E+18,5.266246826,0.288586933,5.903308098,-0.230106979,5.914835428,4.131816428,1.640243512
1.64617E+18,5.27622876,0.054373687,5.969309387,-0.432497099,5.985203822,3.700733277,1.680962234
1.64617E+18,5.286210938,-0.358976812,5.848825397,-0.787708713,5.912538194,3.261499402,1.598479872
1.64617E+18,5.296193115,-0.748680186,5.36733835,-1.10912561,5.531636521,2.832712078,1.391546393
1.64617E+18,5.306175049,-1.051308504,4.480846899,-1.284084117,4.778295776,2.437348506,1.099590713
1.64617E+18,5.316156982,-1.351235745,3.505087265,-1.378507783,4.00146954,2.115287738,0.796714145
1.64617E+18,5.32613916,-1.497390475,2.47151111,-1.296246848,3.167144028,1.86466697,0.504596561
1.64617E+18,5.33612085,-1.592739147,1.474521349,-1.064675642,2.417553603,1.685586291,0.277037443
1.64617E+18,5.346103027,-1.587656145,0.665921239,-0.839845727,1.91557928,1.576136549,0.155999011
1.64617E+18,5.356084961,-1.574903046,0.087775314,-0.617495354,1.693908092,1.520778869,0.119726447
1.64617E+18,5.366066895,-1.529146673,-0.243275088,-0.418755573,1.604003911,1.505107995,0.105443996
1.64617E+18,5.376048828,-1.520898777,-0.390753468,-0.26720366,1.592865078,1.529316616,0.14553769
1.64617E+18,5.386030762,-1.540847924,-0.486212322,-0.170063137,1.624664956,1.577606599,0.219786329
1.64617E+18,5.396012695,-1.498490838,-0.487533342,-0.083204353,1.578000797,1.649365935,0.318440582
1.64617E+18,5.405995117,-1.458647634,-0.541131076,-0.076918405,1.557688095,1.760129697,0.442733057
1.64617E+18,5.415976807,-1.35644705,-0.584761544,-0.232192553,1.495261865,1.924921761,0.61130912
1.64617E+18,5.425958984,-1.118891509,-0.675410367,-0.431516855,1.37633723,2.159776957,0.817493602
1.64617E+18,5.435941162,-0.765562347,-0.915558848,-0.571090161,1.323056191,2.470487765,1.024851338
1.64617E+18,5.445923096,-0.401470384,-1.041760631,-0.780132725,1.362002478,2.850487791,1.215677747
1.64617E+18,5.455905029,0.065396601,-1.032283777,-1.137143497,1.537199351,3.284792241,1.372058305
1.64617E+18,5.465887207,0.387742888,-1.162518762,-1.380671683,1.846090115,3.758874135,1.499440722
1.64617E+18,5.475868896,0.459927396,-1.246519233,-1.594821799,2.075764914,4.259702662,1.609295434
1.64617E+18,5.485851074,0.396847108,-1.30149644,-1.90651342,2.342258319,4.802414588,1.694154593
1.64617E+18,5.495833008,0.203518832,-1.388064716,-2.290089544,2.685638414,5.388641085,1.754621255
1.64617E+18,5.505814941,0.061296326,-1.474644098,-2.845627331,3.205608735,6.008690491,1.785176949
1.64617E+18,5.515796875,0.084608374,-1.424368201,-3.569162555,3.843813821,6.634601801,1.789910698
1.64617E+18,5.525779053,0.279974149,-1.433815244,-4.238758098,4.483445315,7.229807041,1.75214741
1.64617E+18,5.53576123,0.458575981,-1.451042858,-4.891818687,5.123056448,7.76419021,1.644654955
1.64617E+18,5.545743164,0.529069467,-1.449495628,-5.492413759,5.705046974,8.232986156,1.485432958
1.64617E+18,5.555725098,0.512566222,-1.51292619,-6.07139555,6.278018296,8.656402655,1.295879062
1.64617E+18,5.565707031,0.370391648,-1.614057245,-6.651322514,6.854375387,9.043698902,1.089499571
1.64617E+18,5.575689209,0.242780144,-1.735126342,-7.295455115,7.502884175,9.392339336,0.868554711
1.64617E+18,5.585670898,0.291603796,-1.833132542,-7.991795457,8.204523284,9.684371981,0.646815043
1.64617E+18,5.595653076,0.400980993,-1.911988637,-8.668729089,8.886132472,9.908549742,0.455161929
1.64617E+18,5.60563501,0.560541149,-2.00540108,-9.232828368,9.464721842,10.06612,0.329276105
1.64617E+18,5.615616943,0.790790312,-2.147037748,-9.524908111,9.795866217,10.16311869,0.276463016
1.64617E+18,5.625598877,0.846336258,-2.304588609,-9.515669158,9.827277001,10.21470101,0.249981902
1.64617E+18,5.635581299,0.88365915,-2.434101124,-9.463103689,9.811015911,10.23609099,0.223684487
1.64617E+18,5.645562988,1.048566658,-2.359832358,-9.597897359,9.939211966,10.214352,0.269758045
1.64617E+18,5.655545166,1.37203055,-2.241414068,-9.804897019,10.15098076,10.11711987,0.459740261
1.64617E+18,5.6655271,1.621818088,-2.269561135,-9.957435605,10.34077973,9.921734678,0.736007894
1.64617E+18,5.675509033,1.789217997,-2.494521983,-9.960892467,10.42321062,9.62508478,1.041680724
1.64617E+18,5.685491211,1.889694972,-2.963314384,-9.837328047,10.44630089,9.243598029,1.336390336
1.64617E+18,5.6954729,1.929651573,-3.680898005,-9.600907647,10.46183507,8.780418515,1.613264341
1.64617E+18,5.705455078,1.928084032,-4.411391378,-9.257713803,10.43470875,8.242345356,1.843604113
1.64617E+18,5.715437012,1.849400225,-5.140460854,-8.74564574,10.31168941,7.645135484,1.99755117
1.64617E+18,5.725418945,1.793179887,-5.591786572,-8.145038977,10.04117678,7.017222586,2.046937943
1.64617E+18,5.735400879,1.848239657,-5.645857185,-7.532991951,9.593626057,6.399886435,1.971369516
1.64617E+18,5.745383057,1.883867289,-5.357478635,-6.939279039,8.966890591,5.832216932,1.777795991
1.64617E+18,5.755364746,1.829946313,-4.835101943,-6.361289766,8.197128875,5.335355663,1.505789762
1.64617E+18,5.765347168,1.706187686,-4.225865299,-5.797499699,7.374280758,4.940397439,1.187757999
1.64617E+18,5.775329346,1.564794179,-3.522840364,-5.367607814,6.608343113,4.650267294,0.869518679
1.64617E+18,5.785311035,1.469039118,-2.754493354,-4.905422265,5.814505754,4.451533305,0.577275568
1.64617E+18,5.795293213,1.305833446,-2.016265004,-4.477397343,5.081103475,4.340763654,0.376462956
1.64617E+18,5.805275146,1.078943237,-1.399769767,-4.09773284,4.462610036,4.303635283,0.314890103
1.64617E+18,5.81525708,0.971902228,-0.756632607,-3.839851135,4.032560425,4.319281526,0.326088541
1.64617E+18,5.825239014,0.833420663,-0.095569913,-3.775747788,3.867815271,4.367966929,0.31582889
1.64617E+18,5.835220947,0.554518527,0.275521407,-3.867679637,3.91693102,4.420794912,0.268367367
1.64617E+18,5.845202881,0.191358438,0.471737222,-3.965737276,3.998277904,4.460288364,0.215081355
1.64617E+18,5.855185059,-0.115113403,0.678007398,-4.19150418,4.247546635,4.485746009,0.169024904
1.64617E+18,5.865166748,-0.32713469,0.890285875,-4.371260443,4.472979309,4.480010399,0.177758067
1.64617E+18,5.87514917,-0.497150042,1.111645483,-4.457662715,4.621003216,4.444672677,0.208167354
1.64617E+18,5.885131348,-0.611282471,1.368406076,-4.461821588,4.706809252,4.403107816,0.210295215
1.64617E+18,5.895113037,-0.704347708,1.611199518,-4.369248518,4.709819762,4.375428104,0.185221055
1.64617E+18,5.905095215,-0.742563749,1.71268187,-4.225062166,4.619072463,4.375289024,0.184970264
1.64617E+18,5.915077148,-0.707253074,1.807055852,-4.081598867,4.519414461,4.430756382,0.298241003
1.64617E+18,5.925059082,-0.70395374,1.929829414,-3.886625745,4.396095099,4.543902281,0.473527445
1.64617E+18,5.935041016,-0.762259799,2.119979061,-3.676524613,4.311865541,4.713739739,0.658501868
1.64617E+18,5.945023193,-0.812971457,2.369306873,-3.43689285,4.252854348,4.935036413,0.834570443
1.64617E+18,5.955004883,-0.959047861,2.65746389,-3.094480511,4.19019054,5.197831792,0.979546802
1.64617E+18,5.964987061,-1.14749538,2.984251373,-2.597810508,4.119602085,5.515101619,1.107278146
1.64617E+18,5.97496875,-1.419684428,3.382995255,-2.055443168,4.205354609,5.913682136,1.242346529
1.64617E+18,5.984950928,-1.665265747,3.78934026,-1.578859675,4.430012132,6.398242087,1.414579728
1.64617E+18,5.994933105,-1.830239743,4.202486177,-1.076399398,4.708428958,6.948340591,1.599709466
1.64617E+18,6.004915039,-1.968170835,4.744866084,-0.61660162,5.173746046,7.535840662,1.741717799
1.64617E+18,6.014897217,-2.158690777,5.221827471,-0.070304539,5.650873448,8.110477741,1.814044251
1.64617E+18,6.02487915,-2.41455705,5.570941937,0.526384758,6.094469684,8.65385464,1.809723274
1.64617E+18,6.034861084,-2.517991998,5.908435524,1.150453061,6.52483228,9.155637146,1.724140447
1.64617E+18,6.044843018,-2.372387888,6.200000888,1.810327421,6.88080814,9.611357247,1.563318988
1.64617E+18,6.054825195,-2.013038443,6.574483604,2.63362358,7.362888808,10.02148481,1.310748227
1.64617E+18,6.064806885,-1.772615822,6.965058793,3.74745459,8.105407253,10.36441904,0.976242155
1.64617E+18,6.074789063,-1.604093777,7.480470321,4.836240007,9.05095412,10.60063828,0.622896795
1.64617E+18,6.084770996,-1.540638958,8.121324339,5.504110042,9.930997169,10.71812461,0.384830273
1.64617E+18,6.09475293,-1.516145737,8.654217164,5.9004077,10.58342967,10.72539579,0.370301879
1.64617E+18,6.104734863,-1.731798366,8.81527048,6.208126326,10.92011684,10.64175831,0.473104549
1.64617E+18,6.114717041,-1.850482321,8.873914977,6.379549061,11.08464244,10.49723294,0.575635675
1.64617E+18,6.124699219,-1.802887042,9.046399203,6.196398479,11.11229474,10.31925335,0.6382423
1.64617E+18,6.134681152,-1.628287431,9.191671597,5.972714227,11.08203329,10.13471636,0.6489587
1.64617E+18,6.144664063,-1.477406256,9.279450418,5.68464898,10.98208374,9.959266309,0.604796053
1.64617E+18,6.15464502,-1.240203766,9.262457783,5.398242607,10.79223113,9.787621488,0.528973662
1.64617E+18,6.16462793,-1.116140164,8.926552926,5.351777793,10.46759961,9.599703131,0.469109506
1.64617E+18,6.174608887,-0.902569602,8.642095349,5.391372721,10.22581751,9.406537217,0.469665124
1.64617E+18,6.184591064,-0.609386282,8.43001561,5.351418312,10.00370895,9.209109173,0.497883532
1.64617E+18,6.194572998,-0.210602945,8.325224863,5.064716754,9.747054859,9.007713106,0.541177286
1.64617E+18,6.204554932,0.220641524,8.392887364,4.391331171,9.474863083,8.79197443,0.626699463
1.64617E+18,6.21453833,0.664736998,8.605265794,3.4767362,9.304846547,8.558515694,0.751283174
1.64617E+18,6.224519287,1.159591476,8.830354067,2.560486447,9.266924851,8.292503131,0.896785256
1.64617E+18,6.234502197,1.435310744,9.017684565,1.903711222,9.327532807,7.979960274,1.036471918
1.64617E+18,6.244483154,1.367783268,8.995337709,1.750734245,9.26563554,7.626380481,1.116464613
1.64617E+18,6.254466064,0.853864608,8.614525789,2.122092692,8.913047556,7.25805682,1.122453231
1.64617E+18,6.264447021,-0.055976154,8.16207779,2.497925654,8.535940472,6.895373122,1.115024717
1.64617E+18,6.274430176,-0.87792879,7.797099984,2.553886611,8.251537065,6.530688237,1.115193021
1.64617E+18,6.284410889,-1.603086938,7.467378784,2.34615513,7.989748277,6.138783062,1.130107671
1.64617E+18,6.294393066,-2.199905123,6.984744321,1.994198133,7.589668107,5.697567404,1.181454609
1.64617E+18,6.304375732,-2.47247674,6.54584437,1.422082136,7.140275719,5.212486659,1.295346175
1.64617E+18,6.314356934,-2.304569612,6.199081435,0.642389557,6.644720918,4.701273107,1.434904733
1.64617E+18,6.324340332,-1.631929002,5.919976324,-0.093083942,6.141496281,4.202963225,1.535215862
1.64617E+18,6.334321045,-0.763257285,5.702139629,-0.66875617,5.791734873,3.751867157,1.561841037
1.64617E+18,6.344304199,0.02502309,5.478576373,-1.071332178,5.582398934,3.344773505,1.506665259
1.64617E+18,6.354285156,0.615688597,5.125829103,-1.136145134,5.286210571,2.963705378,1.36805738
1.64617E+18,6.364268066,1.010951651,4.669721411,-1.036771736,4.889091627,2.603794564,1.168594743
1.64617E+18,6.374249023,1.173686344,4.089631367,-0.817193166,4.332485317,2.269563183,0.918353544
1.64617E+18,6.384231201,1.039835216,3.38297772,-0.522844893,3.577591691,1.963054603,0.651378654
1.64617E+18,6.394213135,0.739247172,2.62645325,-0.237938403,2.738860664,1.709605987,0.428970369
1.64617E+18,6.404195068,0.180697928,2.018901782,0.068822192,2.028140193,1.54800086,0.293931738
1.64617E+18,6.414177002,-0.518328439,1.537784153,0.357132353,1.661622096,1.483285024,0.248885284
1.64617E+18,6.424158936,-1.032843165,1.123188037,0.574743423,1.630535609,1.49677141,0.26151687
1.64617E+18,6.434140869,-1.380255796,0.801290079,0.643408963,1.720798346,1.561410148,0.351122869
1.64617E+18,6.444122559,-1.57149733,0.501959926,0.646077305,1.771717672,1.665371704,0.503686216
1.64617E+18,6.454104736,-1.565812562,0.174285723,0.603465075,1.687102424,1.804740485,0.676871728
1.64617E+18,6.464086426,-1.473586698,-0.0517448,0.467318237,1.546777817,1.9882168,0.847325063
1.64617E+18,6.474068848,-1.234119624,-0.228792974,0.175795543,1.267399521,2.2255502,1.007654514
1.64617E+18,6.484050537,-0.909850553,-0.417080334,-0.293743292,1.043105534,2.532019386,1.128446082
1.64617E+18,6.494032715,-0.610058628,-0.635505642,-0.696176677,1.122809386,2.907487584,1.193355885
1.64617E+18,6.504014648,-0.395932916,-0.709343032,-1.116772325,1.380981838,3.325468758,1.226600523
1.64617E+18,6.513996582,-0.198930481,-0.785368872,-1.603428884,1.796485955,3.762931023,1.235163407
1.64617E+18,6.523978516,-0.021406361,-0.861201819,-2.107664938,2.276922989,4.210068035,1.251587577
1.64617E+18,6.533960693,0.227805862,-0.914386297,-2.594588039,2.760413901,4.662661634,1.288480503
1.64617E+18,6.543942383,0.458381043,-0.954751625,-2.982973024,3.165405489,5.115456252,1.335190485
1.64617E+18,6.553924561,0.564537086,-1.013569725,-3.325283656,3.521865571,5.580517823,1.384011081
1.64617E+18,6.563906494,0.505083173,-1.059649339,-3.740228731,3.920111821,6.078606651,1.448287133
1.64617E+18,6.573888428,0.359519394,-1.013720531,-4.196442805,4.33209138,6.610615876,1.532371247
1.64617E+18,6.583870605,0.288175283,-0.92801384,-4.698351878,4.797787516,7.167372556,1.612698414
1.64617E+18,6.593852783,0.332338396,-0.823168733,-5.227784918,5.302621118,7.738519841,1.682235132
1.64617E+18,6.603834717,0.447914448,-0.886224032,-5.66930002,5.755604495,8.300292662,1.712708372
1.64617E+18,6.61381665,0.614016864,-0.920080124,-6.169477739,6.26785607,8.838873717,1.674202578
1.64617E+18,6.623798584,0.870535465,-1.064606084,-6.662407387,6.80285898,9.336219449,1.572183182
1.64617E+18,6.633780518,1.07472993,-1.578141298,-7.03381961,7.288360082,9.777959552,1.410600934
1.64617E+18,6.643762695,1.393101541,-2.061232273,-7.409505857,7.816021202,10.16713905,1.189596144
1.64617E+18,6.653744385,1.68736272,-2.575088973,-7.925815211,8.502753844,10.4919412,0.915046801
1.64617E+18,6.663726563,2.117068142,-3.119229168,-8.436219725,9.240204076,10.7188292,0.630847564
1.64617E+18,6.673708496,2.550438516,-3.554320959,-8.880613597,9.899658175,10.82852359,0.426462917
1.64617E+18,6.68369043,3.067905224,-3.765367264,-9.319577262,10.50926037,10.81972181,0.446003583
1.64617E+18,6.693672607,3.360944752,-3.793742294,-9.672931265,10.92034933,10.68926748,0.658092906
1.64617E+18,6.703654541,3.474652964,-3.790743113,-9.88373324,11.14141505,10.46224097,0.889961899
1.64617E+18,6.713636719,3.475648989,-3.732544022,-10.01773956,11.24131339,10.1737384,1.072030255
1.64617E+18,6.723618652,3.342655062,-3.643291621,-10.07210594,11.22026001,9.856804809,1.173273293
1.64617E+18,6.73360083,3.114582804,-3.509005315,-10.14801078,11.18015506,9.520022126,1.216140287
1.64617E+18,6.74358252,3.021401831,-3.019146161,-10.20631801,11.06404266,9.145687425,1.2236195
1.64617E+18,6.753564697,2.865288894,-2.647176889,-10.04045174,10.77163391,8.730163615,1.207037886
1.64617E+18,6.763546631,2.640950562,-2.356497076,-9.712308167,10.33714798,8.280233867,1.200764353
1.64617E+18,6.773528564,2.395187164,-2.180537282,-9.261566971,9.811640391,7.81801943,1.209604857
1.64617E+18,6.783510498,2.028995891,-2.396443886,-8.652574657,9.204717042,7.357706335,1.23885332
1.64617E+18,6.793492432,1.635655913,-2.956262127,-7.962983204,8.650084251,6.928559525,1.267668294
1.64617E+18,6.803474365,1.325938807,-3.551619299,-7.334565474,8.256389287,6.535676012,1.281983866
1.64617E+18,6.813456543,1.161602816,-4.063298071,-6.877289324,8.0719775,6.178715861,1.249726146
1.64617E+18,6.823438477,1.209581541,-4.308908324,-6.452203378,7.852433182,5.846930347,1.138523831
1.64617E+18,6.833420654,1.340123838,-4.12350441,-6.042093468,7.436808052,5.545192763,0.951512206
1.64617E+18,6.843402832,1.450668764,-3.68234119,-5.662817672,6.908804563,5.2952735,0.722502611
1.64617E+18,6.853384521,1.425236216,-3.07610665,-5.277165327,6.272336429,5.096499319,0.485956754
1.64617E+18,6.863366699,1.373208215,-2.302111405,-5.047360546,5.715003605,4.945303421,0.29382353
1.64617E+18,6.873348633,1.248571343,-1.279041447,-4.892207394,5.208509442,4.836961475,0.158721237
1.64617E+18,6.883330566,0.956697352,-0.14802257,-4.81693208,4.913248942,4.763122407,0.139258004
1.64617E+18,6.8933125,0.523269695,0.699962625,-4.639658866,4.721249119,4.703889879,0.182166062
1.64617E+18,6.903294678,0.08816256,1.495304609,-4.440976369,4.686787772,4.646389113,0.246870772
1.64617E+18,6.913276367,-0.194522601,2.102968889,-4.259267802,4.754122359,4.569696781,0.328152506
1.64617E+18,6.923258545,-0.398991427,2.463148355,-4.141435204,4.835057344,4.467063962,0.405745355
1.64617E+18,6.933240479,-0.587072743,2.642693606,-4.129353721,4.937615422,4.341848004,0.462150767
1.64617E+18,6.943222412,-0.754825557,2.603054838,-4.107456946,4.921062759,4.193092683,0.485272597
1.64617E+18,6.953204834,-0.941445715,2.44450386,-3.974830098,4.76037745,4.045893203,0.464957033
1.64617E+18,6.963186523,-1.143836857,2.278475678,-3.866750247,4.63158414,3.929790631,0.414241946
1.64617E+18,6.973168701,-1.261153616,2.052802883,-3.765295952,4.470118759,3.845633907,0.34236865
1.64617E+18,6.983150635,-1.34009242,1.99041277,-3.593437164,4.320923668,3.806705365,0.286765767
1.64617E+18,6.993132568,-1.429399328,1.991761262,-3.343803647,4.146241454,3.812613701,0.29769973
1.64617E+18,7.003114502,-1.522353067,2.011625654,-3.000190116,3.919864457,3.870614546,0.396992941
1.64617E+18,7.01309668,-1.564490958,2.189618999,-2.579609665,3.727794166,3.985809669,0.53700963
1.64617E+18,7.023078369,-1.693333903,2.380243277,-2.074661079,3.58289776,4.157121418,0.681253701
1.64617E+18,7.033060547,-1.774012245,2.536219437,-1.524270591,3.450062218,4.379433171,0.808452788
1.64617E+18,7.043042725,-1.783866699,2.763880191,-1.036752447,3.449067954,4.648576107,0.897368339
1.64617E+18,7.053024414,-1.908902654,2.984059358,-0.63781918,3.599351733,4.947857803,0.945205834
1.64617E+18,7.063006836,-1.984415867,3.219815448,-0.243126035,3.790016903,5.256811607,0.958766909
1.64617E+18,7.07298877,-2.024997176,3.53922159,0.162781163,4.080833338,5.57146832,0.941934185
1.64617E+18,7.082970703,-2.08672941,3.805178465,0.592147562,4.380007023,5.879804938,0.907550847
1.64617E+18,7.092952637,-2.151639689,4.074517969,1.051754786,4.726249904,6.17839022,0.854629692
1.64617E+18,7.10293457,-2.216684408,4.319424749,1.467035961,5.071815695,6.473615816,0.810800408
1.64617E+18,7.112916504,-2.213372799,4.600001978,1.88267954,5.440911652,6.776591224,0.796317936
1.64617E+18,7.122898682,-2.257739472,4.819354339,2.32082955,5.806015292,7.083206355,0.813116638
1.64617E+18,7.132880371,-2.231721234,4.983364751,2.811301283,6.141491579,7.390807645,0.852639673
1.64617E+18,7.142862549,-2.212329135,5.114720264,3.23158129,6.441884912,7.695083514,0.894413322
1.64617E+18,7.152844482,-2.160906115,5.208610846,3.59751362,6.688889775,7.986600269,0.913321726
1.64617E+18,7.162826416,-2.092749401,5.390089111,3.831910405,6.936584032,8.272816035,0.910264441
1.64617E+18,7.172808594,-1.978361974,5.602735252,4.002648664,7.164199518,8.544479176,0.875659264
1.64617E+18,7.182790771,-1.833122313,5.826090418,4.117307894,7.365859846,8.783646844,0.788259585
1.64617E+18,7.192772705,-1.655808767,6.197010474,4.2207595,7.67850586,8.994793738,0.651058851
1.64617E+18,7.202754639,-1.535021995,6.679546738,4.320045804,8.101569779,9.165769728,0.486688282
1.64617E+18,7.212736816,-1.580900241,7.076026182,4.449800896,8.507062954,9.303227173,0.338159748
1.64617E+18,7.222718506,-1.520720498,7.532830039,4.453572231,8.882028194,9.428642726,0.237088194
1.64617E+18,7.232700684,-1.354768888,8.042320945,4.22328405,9.184250274,9.53650423,0.207365418
1.64617E+18,7.242682617,-1.126924593,8.435697162,3.888892521,9.357052458,9.633017935,0.242569178
1.64617E+18,7.252664551,-0.936814694,8.791296899,3.613583296,9.551047439,9.703405813,0.254127207
1.64617E+18,7.262646484,-0.825351338,8.980238924,3.443642324,9.653215444,9.722821274,0.249112549
1.64617E+18,7.272628418,-0.696435327,8.880489679,3.459284714,9.555876194,9.683239803,0.285775262
1.64617E+18,7.282610596,-0.434444872,8.718146907,3.691196697,9.477328785,9.591634081,0.424884037
1.64617E+18,7.292592529,-0.118486971,8.579272105,3.810719733,9.388265756,9.444257688,0.640075355
1.64617E+18,7.302574707,0.442502067,8.618249778,3.915006037,9.476144236,9.248885277,0.880402423
1.64617E+18,7.312556641,1.039114062,8.817896152,4.055408194,9.76121848,8.994128249,1.115090617
1.64617E+18,7.322538818,1.433159995,8.83393894,4.372869632,9.960643231,8.67581241,1.29112273
1.64617E+18,7.332520508,1.540532136,8.780202089,4.852306176,10.14938733,8.318381561,1.377800011
1.64617E+18,7.342502686,1.259161857,8.399185003,5.393564678,10.06093123,7.940674966,1.34131555
1.64617E+18,7.352484619,0.657841977,7.818278965,5.780200774,9.745202052,7.582625763,1.197751376
1.64617E+18,7.362466553,-0.189196876,7.211619478,5.801397875,9.257400729,7.256537157,0.990570237
1.64617E+18,7.372448486,-1.000338779,6.584001374,5.504245651,8.639818977,6.969541391,0.757660726
1.64617E+18,7.382430664,-1.550610317,6.048566464,5.006745627,8.003564855,6.715617746,0.553261952
1.64617E+18,7.392412598,-1.889406218,5.629318723,4.473625423,7.434541651,6.466858195,0.471436448
1.64617E+18,7.402394531,-1.867570672,5.4527709,3.845075591,6.928573952,6.201095412,0.586150613
1.64617E+18,7.412376465,-1.520626682,5.52539716,3.229327373,6.578060092,5.912945063,0.819513125
1.64617E+18,7.422358643,-0.959509049,5.676570888,2.764264222,6.386334735,5.591098033,1.084315805
1.64617E+18,7.43234082,-0.339352366,5.860699375,2.478613051,6.372321386,5.236061955,1.321181622
1.64617E+18,7.44232251,0.081546649,6.120797587,2.127270387,6.480439202,4.848152661,1.489379829
1.64617E+18,7.452304688,0.426422747,6.22308658,1.771358515,6.484315995,4.439757207,1.544699676
1.64617E+18,7.462286621,0.627426965,6.197134977,1.414666892,6.387443067,4.038470885,1.481373196
1.64617E+18,7.472268555,0.562458526,5.992765081,0.993737481,6.100582521,3.664825817,1.302151503
1.64617E+18,7.482250488,0.241528098,5.47536384,0.622874709,5.515969353,3.351241114,1.02615045
1.64617E+18,7.492232666,-0.122555536,4.769280102,0.240526666,4.776913818,3.132577536,0.732539517
1.64617E+18,7.502214355,-0.41913259,4.021469392,-0.175758718,4.047070462,3.022798093,0.532962697
1.64617E+18,7.512196533,-0.516941807,3.269301656,-0.575570521,3.359589793,3.029371319,0.545805507
1.64617E+18,7.522178467,-0.564250671,2.611637958,-0.950640098,2.835973949,3.138050269,0.68991251
1.64617E+18,7.5321604,-0.579286619,2.038492618,-1.313454588,2.493228448,3.326421162,0.825546388
1.64617E+18,7.542142578,-0.586017243,1.586797482,-1.697585423,2.39648466,3.572645249,0.903802698
1.64617E+18,7.552124756,-0.642062225,1.174588554,-2.077541018,2.471452782,3.856522295,0.935074825
1.64617E+18,7.562105225,-0.628941754,0.786396461,-2.452299629,2.650992379,4.162253158,0.932035502
1.64617E+18,7.572087646,-0.637331981,0.502688241,-2.851450338,2.964735494,4.471544936,0.891516543
1.64617E+18,7.58206958,-0.649292468,0.237307119,-3.256772429,3.329333572,4.763711773,0.826181212
1.64617E+18,7.592051514,-0.627998628,0.019631752,-3.625072658,3.679119386,5.036370874,0.754632177
1.64617E+18,7.602033691,-0.704130997,-0.181122875,-4.04802919,4.112802728,5.29855392,0.690240979
1.64617E+18,7.612015625,-0.665077043,-0.447991605,-4.373472858,4.44637929,5.548171044,0.667265601
1.64617E+18,7.621997559,-0.645516749,-0.670322689,-4.627027348,4.719682877,5.798381198,0.676262156
1.64617E+18,7.631979492,-0.672747286,-0.905851108,-4.825300096,4.955469317,6.067291478,0.726635408
1.64617E+18,7.64196167,-0.639734658,-1.093532904,-5.079647782,5.235255126,6.353454996,0.79289291
1.64617E+18,7.651943359,-0.457803389,-1.206478899,-5.376060585,5.528761407,6.644067319,0.859565903
1.64617E+18,7.661925537,-0.283182151,-1.238133098,-5.601726367,5.743910165,6.931659253,0.91745826
1.64617E+18,7.671907471,-0.065092504,-1.203122575,-5.761771383,5.886403862,7.218333568,0.94888082
1.64617E+18,7.681889648,0.086140991,-1.203253507,-5.934558392,6.055924585,7.505348312,0.936592256
1.64617E+18,7.691871582,0.311397022,-1.294715986,-6.158629013,6.300949842,7.784288038,0.876851001
1.64617E+18,7.701853516,0.540280597,-1.341936002,-6.448708522,6.608973972,8.041016266,0.774869377
1.64617E+18,7.711835693,0.707159112,-1.377711664,-6.773715552,6.948480828,8.272898252,0.648240872
1.64617E+18,7.721817627,0.88061949,-1.52550627,-7.196349428,7.408785674,8.486472949,0.514800436
1.64617E+18,7.731799561,1.055045498,-1.753189821,-7.544556132,7.817104501,8.685004936,0.437999138
1.64617E+18,7.741781494,1.190038783,-2.031443284,-7.793528555,8.141378351,8.873494776,0.429439397
1.64617E+18,7.751763672,1.295015407,-2.44227274,-7.937058489,8.40468075,9.054409109,0.462695848
1.64617E+18,7.761745361,1.324092887,-2.795080801,-8.036022137,8.610653311,9.221923397,0.498958127
1.64617E+18,7.771727539,1.368717626,-3.040384179,-8.096904768,8.756551303,9.372543701,0.51865029
1.64617E+18,7.781709473,1.365440942,-3.209539554,-8.128600467,8.845321852,9.498134569,0.506191346
1.64617E+18,7.791691406,1.366397074,-3.309850524,-8.113161491,8.868232114,9.587916605,0.459951405
1.64617E+18,7.801673584,1.375174255,-3.466063999,-8.11176916,8.927793836,9.65034181,0.395947657
1.64617E+18,7.811655762,1.460029297,-3.606505905,-8.208813822,9.084227802,9.680611893,0.348249729
1.64617E+18,7.821637451,1.683702444,-3.714031629,-8.462879768,9.394105537,9.654423985,0.398354411
1.64617E+18,7.831619629,1.972464441,-3.618507893,-8.78320244,9.702002909,9.541126593,0.577234554
1.64617E+18,7.841601563,2.246425028,-3.429505662,-9.066694387,9.950521675,9.325134346,0.826787466
1.64617E+18,7.851583496,2.315943678,-3.20623116,-9.271425517,10.07982363,9.0067178,1.094445996
1.64617E+18,7.861565674,2.236203201,-2.98786255,-9.403342756,10.11685635,8.605404554,1.336405536
1.64617E+18,7.871547363,1.873602061,-2.974145574,-9.375149511,10.01245998,8.133912251,1.536700658
1.64617E+18,7.881529541,1.209761574,-3.335402314,-9.074160486,9.743142213,7.615867552,1.682390653
1.64617E+18,7.891511475,0.569286765,-3.828081786,-8.667696238,9.492484167,7.079851067,1.770805688
1.64617E+18,7.901493408,0.160993622,-4.189049188,-8.223623268,9.230494662,6.532480091,1.786358583
1.64617E+18,7.911475342,0.049092751,-4.216639205,-7.749282586,8.822348717,5.992197416,1.703773532
1.64617E+18,7.921457764,0.090746877,-3.9552492,-7.252176529,8.26113162,5.485889556,1.531051075
1.64617E+18,7.931439453,0.181082543,-3.461721002,-6.698259037,7.542080436,5.042068259,1.285881185
1.64617E+18,7.941421631,0.215119253,-2.849475239,-6.133334412,6.766356216,4.693567525,1.002024509
1.64617E+18,7.951403809,0.177170923,-2.276550263,-5.620557909,6.066691177,4.43562346,0.7304398
1.64617E+18,7.961385498,0.120797221,-1.700232138,-5.125963543,5.401933314,4.255948725,0.487817667
1.64617E+18,7.971367676,0.051012394,-1.066418687,-4.71258937,4.832013002,4.141658063,0.305902926
1.64617E+18,7.981349609,-0.096731358,-0.578213729,-4.343593268,4.382977362,4.068123064,0.201773797
1.64617E+18,7.991331543,-0.133511814,-0.136336224,-4.014241487,4.018774401,4.019796238,0.176918587
1.64617E+18,8.001313477,-0.149801124,0.438530533,-3.79951211,3.827667917,3.987562371,0.201785186
1.64617E+18,8.01129541,-0.122566057,0.944576852,-3.636600599,3.759270113,3.951639874,0.252623653
1.64617E+18,8.021277344,-0.15101956,1.461753053,-3.529189441,3.82291865,3.900448555,0.327259826
1.64617E+18,8.031259766,-0.261595904,1.965430304,-3.539561197,4.057073103,3.834432891,0.395674085
1.64617E+18,8.041241455,-0.438276851,2.237196158,-3.511855444,4.18691556,3.753672424,0.423435005
1.64617E+18,8.051223633,-0.682902769,2.397998714,-3.466362105,4.269943825,3.680673391,0.40497441
1.64617E+18,8.061205566,-0.926899741,2.452982935,-3.356045289,4.259026695,3.615657256,0.354152482
1.64617E+18,8.0711875,-1.15500371,2.391798691,-3.118960288,4.096663011,3.574088433,0.295782798
1.64617E+18,8.081169678,-1.28733815,2.386738485,-2.802493707,3.899709103,3.579516379,0.30565608
1.64617E+18,8.091151611,-1.324542676,2.465047467,-2.415111762,3.696435734,3.630462358,0.386536077
1.64617E+18,8.101133545,-1.157405656,2.649095874,-1.916454969,3.468442943,3.729546812,0.500842861
1.64617E+18,8.111115479,-0.913786577,2.835984473,-1.291322252,3.247356925,3.87318099,0.601260082
1.64617E+18,8.121097656,-0.65012395,3.01810279,-0.686627927,3.162762006,4.058643284,0.662530388
1.64617E+18,8.131079346,-0.412342492,3.218519563,-0.173639242,3.249468433,4.276870905,0.690321726
1.64617E+18,8.141061523,-0.332515798,3.421535706,0.364497914,3.456925234,4.510047479,0.697677247
1.64617E+18,8.151043701,-0.470083025,3.453043482,0.978947324,3.61978248,4.744026903,0.697605194
1.64617E+18,8.161025635,-0.672410309,3.455591413,1.542077466,3.843338464,4.978190899,0.673522728
1.64617E+18,8.171007568,-0.859284587,3.596529869,1.885981504,4.150942464,5.204881355,0.633726676
1.64617E+18,8.180989502,-1.107961242,3.712758832,2.104427271,4.409168901,5.416750295,0.599175848
1.64617E+18,8.19097168,-1.296408469,3.917019714,2.224157813,4.687280271,5.622935173,0.571073935
1.64617E+18,8.200952637,-1.397930276,4.083469629,2.329802545,4.904784722,5.829865711,0.569452828
1.64617E+18,8.21093457,-1.415447521,4.228328474,2.479505031,5.101979868,6.045529355,0.586396722
1.64617E+18,8.220916504,-1.333384447,4.408711637,2.711969971,5.345038214,6.278346273,0.626375289
1.64617E+18,8.230898682,-1.275382632,4.578346319,2.926144052,5.581234173,6.521932134,0.686783338
1.64617E+18,8.240880615,-1.259381345,4.722719427,3.116381962,5.796719476,6.778971309,0.763348634
1.64617E+18,8.250862549,-1.283625267,4.828457683,3.252208483,5.961422434,7.046513601,0.837450432
1.64617E+18,8.260844482,-1.336426883,4.921148826,3.366203695,6.110243031,7.323008818,0.888439437
1.64617E+18,8.270826416,-1.355929456,5.026482009,3.493453526,6.269631856,7.604157336,0.904870393
1.64617E+18,8.28080835,-1.256602528,5.224033456,3.606174481,6.471017683,7.87708322,0.872200768
1.64617E+18,8.290790771,-1.224841947,5.508783295,3.715443249,6.756585656,8.124643422,0.7849439
1.64617E+18,8.300772461,-1.14413584,5.787762733,3.880260886,7.061421162,8.332245278,0.660303747
1.64617E+18,8.310754639,-1.183432662,6.185957749,3.942147726,7.430149045,8.497830166,0.511769183
1.64617E+18,8.320736572,-1.205607085,6.564319937,3.999821332,7.780896823,8.611910526,0.368013261
1.64617E+18,8.330718506,-1.254870297,6.959982805,4.05375692,8.151625928,8.674936529,0.257746599
1.64617E+18,8.340700439,-1.38496938,7.311373399,4.050046375,8.472142398,8.680233242,0.247269397
1.64617E+18,8.350682617,-1.570928297,7.536385685,4.109098284,8.726374597,8.624521365,0.335056318
1.64617E+18,8.360664551,-1.75534963,7.626569814,4.283855131,8.921728209,8.495920706,0.484674237
1.64617E+18,8.370646484,-1.935885061,7.566293332,4.470300663,8.998890697,8.287714414,0.669138442
1.64617E+18,8.380628662,-2.162242039,7.307536013,4.686857255,8.946619705,8.018869343,0.846080863
1.64617E+18,8.390610352,-2.397315116,7.01201519,4.806185645,8.832604216,7.711724565,0.9974902
1.64617E+18,8.400592529,-2.288435639,7.018463051,4.6362739,8.717270039,7.390284078,1.097410762
1.64617E+18,8.410574707,-1.815516806,7.140359245,4.379543118,8.570952651,7.078128539,1.119298024
1.64617E+18,8.420556641,-1.19219903,7.175342881,4.223822395,8.411156853,6.790466445,1.067106166
1.64617E+18,8.430538574,-0.711414578,7.058022323,4.12232426,8.20459305,6.53524286,0.947465273
1.64617E+18,8.440520508,-0.329684082,6.839564281,3.969794442,7.91502363,6.312890839,0.7747822
1.64617E+18,8.450502441,-0.131766432,6.367150183,3.847221371,7.44036801,6.113724121,0.564898957
1.64617E+18,8.460484619,-0.321065015,5.741386766,3.703298053,6.839665285,5.953390902,0.353640115
1.64617E+18,8.470466309,-0.654066258,5.210258613,3.499579315,6.31043999,5.821997737,0.218032137
1.64617E+18,8.480448486,-1.074472229,4.816154666,3.188700179,5.875171927,5.696149382,0.259111908
1.64617E+18,8.49043042,-1.410410111,4.635403254,2.843931049,5.61819934,5.559903893,0.430607075
1.64617E+18,8.500412354,-1.562251362,4.732481234,2.544604988,5.595714655,5.379787468,0.675573724
1.64617E+18,8.510394287,-1.558318407,4.974512752,2.291567215,5.694331715,5.117535148,0.980883051
1.64617E+18,8.520376465,-1.410610602,5.297127918,2.068228415,5.858920996,4.753713076,1.316710831
1.64617E+18,8.530358154,-1.19570733,5.592183462,1.75242702,5.981072843,4.3056997,1.596832934
1.64617E+18,8.540340576,-0.943175461,5.701910496,1.297993984,5.923356451,3.813817941,1.754774467
1.64617E+18,8.550322754,-0.5865721,5.770478421,0.654598465,5.837035822,3.324064433,1.780913289
1.64617E+18,8.560304443,-0.251180454,5.519916683,-0.034064767,5.525733636,2.863834066,1.662789394
1.64617E+18,8.570286621,0.16468875,5.006352244,-0.65694649,5.051956439,2.475300156,1.433533908
1.64617E+18,8.580268555,0.501046026,4.33659245,-1.143474454,4.512717033,2.171010885,1.149021056
1.64617E+18,8.590250488,0.675894644,3.478082938,-1.419810684,3.817035089,1.950105332,0.851381802
1.64617E+18,8.600232422,0.644439913,2.504083008,-1.467696471,2.973191457,1.827207118,0.633957449
1.64617E+18,8.610214355,0.440664038,1.512089155,-1.321739017,2.056110998,1.805891979,0.597609766
1.64617E+18,8.620196289,0.079386548,0.732197253,-1.165606791,1.378787232,1.882208736,0.669139348
1.64617E+18,8.630178467,-0.235215992,0.293033098,-0.993574984,1.062255247,2.031048821,0.705173174
1.64617E+18,8.640160156,-0.552526038,0.080379943,-0.860560014,1.025821376,2.234484416,0.689615389
1.64617E+18,8.650142578,-0.885943169,0.043344052,-0.858946734,1.234732156,2.474071725,0.64267211
1.64617E+18,8.660124512,-1.287757837,0.114561614,-1.009677978,1.640394535,2.719631745,0.589118369
1.64617E+18,8.670106445,-1.635481872,0.044585576,-1.165996667,2.009063726,2.937105397,0.550728828
1.64617E+18,8.680088623,-1.868129621,-0.089327804,-1.344979023,2.303661501,3.122817701,0.51865814
1.64617E+18,8.690070557,-1.974720841,-0.327944253,-1.640410999,2.588052951,3.284502329,0.489278659
1.64617E+18,8.70005249,-1.837659957,-0.730677497,-1.92534087,2.76004007,3.42672315,0.4725836
1.64617E+18,8.710034424,-1.402272836,-1.107808682,-2.180532606,2.819278565,3.55647289,0.449273082
1.64617E+18,8.720016602,-0.684771047,-1.497204305,-2.347389056,2.867188082,3.690864054,0.407738102
1.64617E+18,8.729997559,-0.00044073,-1.947522892,-2.407520576,3.096611201,3.844943138,0.355093169
1.64617E+18,8.739979492,0.469784846,-2.338459899,-2.453344754,3.421694461,4.012480824,0.357719781
1.64617E+18,8.749961426,0.864214591,-2.511725631,-2.561819742,3.690332356,4.195226882,0.461086519
1.64617E+18,8.759943359,1.0142306,-2.553376323,-2.647041864,3.815131058,4.411169912,0.643604227
1.64617E+18,8.769925293,0.960415204,-2.514052028,-2.775706238,3.866186763,4.668224798,0.838147917
1.64617E+18,8.779907471,0.841851733,-2.454522566,-2.938874939,3.920507783,4.966699051,1.012668969
1.64617E+18,8.78988916,0.634589697,-2.378261748,-3.165969292,4.010261162,5.306621584,1.163690864
1.64617E+18,8.799871582,0.47720126,-2.20713712,-3.371117771,4.057537471,5.676407782,1.27518647
1.64617E+18,8.809853516,0.459537154,-2.069429608,-3.583076806,4.163190206,6.058899878,1.305523714
1.64617E+18,8.819835449,0.641147959,-2.060498113,-3.843638252,4.407978924,6.43997709,1.251617845
1.64617E+18,8.829817627,1.11434181,-2.053740456,-4.160800706,4.77198806,6.805188544,1.132582833
1.64617E+18,8.839799561,1.626105995,-2.087122501,-4.533577788,5.249155036,7.15791115,0.983946878
1.64617E+18,8.849781494,2.211713926,-2.347939091,-4.880084702,5.849762659,7.505826411,0.854040956
1.64617E+18,8.859763428,2.78250189,-2.37858382,-5.232296842,6.385679917,7.830025997,0.775592633
1.64617E+18,8.869745605,3.200148625,-2.271485381,-5.615570768,6.850929288,8.124008506,0.72811428
1.64617E+18,8.879727295,3.504506835,-2.18878021,-6.042033262,7.319733117,8.370653222,0.670564258
1.64617E+18,8.889709473,3.677037823,-1.92321964,-6.495828,7.70812314,8.558309046,0.610054295
1.64617E+18,8.899691162,3.572943827,-1.764607288,-6.800984083,7.882458434,8.699491145,0.558117951
1.64617E+18,8.909673584,3.17671748,-1.736662465,-7.104684705,7.973962329,8.825355938,0.498399293
1.64617E+18,8.919655518,2.552939101,-1.793272241,-7.431808874,8.060093456,8.939898886,0.414053584
1.64617E+18,8.929637451,1.97057059,-1.739323793,-7.87201114,8.299214125,9.017864528,0.298259873
1.64617E+18,8.939619385,1.778795972,-1.414486274,-8.42724556,8.72830764,9.010989046,0.315065925
1.64617E+18,8.949601563,1.698372774,-1.189118599,-8.852208756,9.09175852,8.894469348,0.53603545
1.64617E+18,8.959583496,1.624932275,-1.190890285,-9.105296213,9.32550501,8.687180643,0.769584196
1.64617E+18,8.96956543,1.439675076,-1.276048695,-9.116607881,9.317376447,8.411801399,0.9608334
1.64617E+18,8.979547607,1.155530802,-1.749544158,-8.954083907,9.196291362,8.111480095,1.091333971
1.64617E+18,8.989529297,0.784566177,-2.441812722,-8.751879081,9.119944128,7.813045486,1.159779429
1.64617E+18,8.999511475,0.571746506,-3.109336135,-8.577001822,9.141106362,7.513800073,1.169979415
1.64617E+18,9.009493408,0.537306623,-3.518763324,-8.396005788,9.119391807,7.200020376,1.110738388
1.64617E+18,9.019475342,0.813304926,-3.557216681,-8.051454684,8.83974988,6.860441508,0.983874015
1.64617E+18,9.02945752,1.191164353,-3.251896348,-7.46637516,8.230459307,6.52190399,0.811995475
1.64617E+18,9.039439453,1.41024323,-2.733074719,-6.90957013,7.563110654,6.237849871,0.644106345
1.64617E+18,9.049421387,1.519627149,-2.234612571,-6.477792578,7.018871469,6.030243748,0.502504924
1.64617E+18,9.059403564,1.48642879,-1.618232485,-6.193485222,6.571712571,5.870990595,0.407285079
1.64617E+18,9.069385498,1.354924955,-0.994905356,-6.086296182,6.314163406,5.722973501,0.394493365
1.64617E+18,9.079367432,1.129461126,-0.586311696,-6.080199035,6.211945278,5.551584586,0.466203458
1.64617E+18,9.089349609,0.881942994,-0.23486674,-6.059137542,6.12748999,5.333291136,0.598255055
1.64617E+18,9.099331299,0.58795654,0.055334934,-5.974191898,6.003309394,5.082006364,0.72599262
1.64617E+18,9.109313477,0.169485775,0.31965807,-5.712155996,5.723603134,4.829820043,0.796722477
1.64617E+18,9.11929541,-0.371813205,0.570868627,-5.411660307,5.454374696,4.598939261,0.837738293
1.64617E+18,9.129277344,-0.814762724,0.810229172,-5.266014403,5.389918116,4.407817367,0.838790064
1.64617E+18,9.139259277,-1.024698583,1.013371572,-5.294410476,5.487049427,4.240811665,0.79155168
1.64617E+18,9.149241699,-0.961012293,1.148924536,-5.215514634,5.426339937,4.083046857,0.676266775
1.64617E+18,9.159223389,-0.786551506,1.210157296,-4.882689039,5.091541633,3.951673297,0.50962876
1.64617E+18,9.169205566,-0.578013823,1.218604221,-4.398116301,4.600274255,3.875248357,0.371563827
1.64617E+18,9.179186523,-0.371666782,1.251159753,-3.811743815,4.029010776,3.871678921,0.364689565
1.64617E+18,9.189168457,-0.35881826,1.474758665,-3.280544935,3.614642269,3.950059566,0.461469124
1.64617E+18,9.199150391,-0.583268821,1.86858964,-2.878999439,3.481446184,4.099502351,0.560089883
1.64617E+18,9.209132568,-0.971016677,2.215372449,-2.410410452,3.414795312,4.289778899,0.635880468
1.64617E+18,9.219114258,-1.304896019,2.659492765,-1.94378429,3.543155762,4.520124887,0.691938959
1.64617E+18,9.229096436,-1.523356691,3.086574853,-1.410605049,3.719861091,4.772774066,0.748066237
1.64617E+18,9.239078613,-1.774234363,3.385750692,-0.819880213,3.909401346,5.04177453,0.802736685
1.64617E+18,9.249060303,-1.948058314,3.617525311,-0.179147776,4.112604345,5.333760771,0.866265022
1.64617E+18,9.25904248,-2.05016815,3.790725577,0.390727749,4.327292227,5.645761616,0.929791461
1.64617E+18,9.269024414,-2.092214563,3.958940748,0.885898453,4.564579903,5.97336522,0.983137125
1.64617E+18,9.279006348,-2.02545398,4.171591857,1.287853699,4.81281722,6.309891695,1.018637379
1.64617E+18,9.288988525,-1.918309949,4.44588986,1.629953318,5.109070123,6.653034163,1.034370934
1.64617E+18,9.298970703,-1.859360039,4.639330657,2.002280318,5.384211657,6.995345688,1.033191405
1.64617E+18,9.308952393,-1.779750788,4.904434423,2.340395836,5.718255201,7.335232688,1.005975153
1.64617E+18,9.31893457,-1.687740905,5.211700044,2.613490892,6.069647548,7.667490899,0.964902889
1.64617E+18,9.328916504,-1.613456941,5.486034872,2.89595525,6.409865734,7.986858113,0.910164151
1.64617E+18,9.338898438,-1.667953378,5.80817073,3.181497701,6.829263747,8.285252771,0.829831866
1.64617E+18,9.348880615,-1.722339341,6.07667203,3.523959723,7.232612798,8.551977473,0.74310366
1.64617E+18,9.358862305,-1.819437779,6.285734467,3.871664907,7.603328269,8.780787033,0.647781506
1.64617E+18,9.368844482,-1.888478582,6.51586015,4.106050586,7.929844656,8.967006194,0.541468648
1.64617E+18,9.378826416,-1.864963851,6.809754834,4.256368574,8.244241899,9.119696594,0.431611284
1.64617E+18,9.38880835,-1.78103206,7.108937687,4.369109402,8.532185371,9.255736761,0.338609861
1.64617E+18,9.398790283,-1.785306377,7.332811909,4.492780206,8.783081653,9.392448239,0.291601325
1.64617E+18,9.408772705,-1.783563917,7.557595062,4.630161554,9.040837317,9.52252508,0.280681728
1.64617E+18,9.418754395,-1.744717469,7.78158385,4.712961418,9.263319685,9.65094565,0.321701078
1.64617E+18,9.428736572,-1.676312918,7.918086078,4.768395721,9.393812319,9.762570807,0.359298687
1.64617E+18,9.438718506,-1.598495227,7.974869457,4.902039052,9.496510765,9.839751207,0.354661837
1.64617E+18,9.448699951,-1.631039944,7.906525988,5.046825124,9.520708395,9.858842737,0.340528158
1.64617E+18,9.458681885,-1.71344321,7.723700985,5.196597168,9.465519884,9.809072842,0.414621069
1.64617E+18,9.468664063,-1.711301229,7.620093311,5.332515458,9.456748653,9.704434978,0.585106545
1.64617E+18,9.478645752,-1.51620945,7.856305037,5.31307426,9.604643566,9.541042531,0.814594159
1.64617E+18,9.48862793,-1.263502224,8.29185334,5.25783928,9.899300155,9.311214717,1.053430818
1.64617E+18,9.498609863,-1.16686439,8.519376732,5.267132009,10.08385006,9.012605328,1.249403427
1.64617E+18,9.508591797,-1.237651744,8.736077116,5.362433042,10.32504302,8.685448706,1.350319372
1.64617E+18,9.51857373,-1.581922862,8.590167593,5.607320241,10.37957126,8.341254284,1.32699366
1.64617E+18,9.528556152,-2.179585096,8.083236308,5.766320717,10.16561631,7.99596346,1.194286255
1.64617E+18,9.538538086,-2.863544973,7.320337627,5.662065977,9.687426073,7.662603295,0.989913627
1.64617E+18,9.54852002,-3.299178616,6.582583908,5.215334017,9.02300944,7.343422107,0.777333897
1.64617E+18,9.558501953,-3.305847718,6.273056187,4.538951005,8.419141244,7.034347685,0.652499811
1.64617E+18,9.568483887,-2.843295673,6.266545198,3.720572429,7.822824183,6.699653334,0.712020798
1.64617E+18,9.578466064,-2.091661606,6.265632174,3.122463912,7.306365423,6.341353245,0.926023635
1.64617E+18,9.588447754,-1.279603757,6.254331613,2.652992882,6.91320627,5.960744394,1.194446858
1.64617E+18,9.598428955,-0.384940398,6.439006628,2.19048526,6.812283841,5.569327986,1.43525124
1.64617E+18,9.608410889,0.437095824,6.678913116,1.605651236,6.883098798,5.153385315,1.607178931
1.64617E+18,9.618393066,1.109871167,6.766228996,0.982339889,6.926663012,4.701808615,1.690006256
1.64617E+18,9.628374756,1.520070801,6.648712623,0.400536611,6.832014664,4.20407452,1.694403267
1.64617E+18,9.638356934,1.61894794,6.290594182,-0.020883798,6.495614191,3.656192126,1.641028402
1.64617E+18,9.648338867,1.40721643,5.759129344,-0.209622994,5.932265223,3.074946682,1.559739828
1.64617E+18,9.658320801,0.93564755,4.98087235,-0.206553085,5.072197737,2.520647609,1.424920159
1.64617E+18,9.668302734,0.319529183,4.225341567,-0.143147657,4.239823288,2.117061132,1.198663257
1.64617E+18,9.678285156,-0.331108416,3.484535768,-0.017781156,3.500276913,1.864958114,0.968755643
1.64617E+18,9.68826709,-0.928714974,2.847343487,0.156133396,2.999042193,1.748814816,0.824638254
1.64617E+18,9.698249023,-1.381456404,2.233755662,0.373583722,2.65285713,1.730744401,0.798613081
1.64617E+18,9.708230957,-1.669407376,1.594114527,0.525488101,2.367331802,1.781317397,0.868371759
1.64617E+18,9.718212891,-1.567183558,1.060789156,0.467459691,1.949322062,1.889272463,0.992715783
1.64617E+18,9.728195068,-1.147401272,0.676084906,0.239801274,1.353190722,2.059024037,1.124816442
1.64617E+18,9.738176758,-0.621733722,0.28243747,-0.019583237,0.683159754,2.303262417,1.20718695
1.64617E+18,9.748158936,-0.097238723,-0.226533212,-0.301267258,0.389274487,2.628299441,1.164025446
1.64617E+18,9.758140869,0.474320663,-0.710302233,-0.586921352,1.036332971,3.009998994,0.978231327
1.64617E+18,9.768122803,1.007845648,-1.08500999,-0.872496536,1.718793103,3.358944138,0.821826382
1.64617E+18,9.778104736,1.395508602,-1.438458102,-1.205647125,2.338843936,3.679529069,0.740780313
1.64617E+18,9.788087158,1.671010135,-1.690622014,-1.514117446,2.81833804,3.988666108,0.761535282
1.64617E+18,9.798068848,1.809473873,-1.806730273,-1.854239043,3.15858709,4.295103651,0.841312534
1.64617E+18,9.808051025,1.853158847,-1.841814446,-2.248226086,3.446882461,4.610686478,0.941705501
1.64617E+18,9.818033203,1.787439882,-1.780528495,-2.63328748,3.646837809,4.944209445,1.054341802
1.64617E+18,9.828014893,1.64091778,-1.596307653,-3.027470337,3.795574519,5.307218973,1.164346753
1.64617E+18,9.83799707,1.297324122,-1.363172851,-3.454181254,3.933529997,5.708409649,1.261496599
1.64617E+18,9.84797876,0.817086929,-1.090159628,-3.979526147,4.206270013,6.150104504,1.333908674
1.64617E+18,9.857960938,0.388490637,-0.901346198,-4.418073632,4.525784414,6.620921081,1.394255209
1.64617E+18,9.867942871,-0.048730421,-0.759415515,-4.865492405,4.924642416,7.109265487,1.42967597
1.64617E+18,9.877924805,-0.391933764,-0.667260963,-5.374791004,5.430214324,7.598739365,1.435828548
1.64617E+18,9.887906738,-0.631758419,-0.610599749,-5.816731638,5.882713464,8.067330192,1.416156066
1.64617E+18,9.897888916,-0.774767398,-0.601660071,-6.237754572,6.31441537,8.510504586,1.355285028
1.64617E+18,9.907870605,-0.747837452,-0.602826193,-6.713745944,6.782112125,8.943443643,1.273647503
1.64617E+18,9.917853027,-0.574269522,-0.750669899,-7.215293783,7.276933087,9.367148281,1.185907318
1.64617E+18,9.927835205,-0.275223155,-0.87017423,-7.753954669,7.807481283,9.763018506,1.077908792
1.64617E+18,9.937816895,0.053025634,-1.056668277,-8.283183711,8.350478546,10.10575573,0.937355758
1.64617E+18,9.947799072,0.304233122,-1.228764381,-8.824100268,8.914435777,10.37031095,0.76144961
1.64617E+18,9.957781006,0.5258828,-1.300625502,-9.304052945,9.409228481,10.53448148,0.586813068
1.64617E+18,9.967762939,0.513687189,-1.556256798,-9.68165467,9.819381187,10.59743304,0.488203644
1.64617E+18,9.977743896,0.303786401,-2.044692057,-9.90267058,10.1161226,10.56835434,0.539631727
1.64617E+18,9.987726074,-0.004607055,-2.734861017,-9.945277549,10.3144574,10.45468417,0.714353626
1.64617E+18,9.997707764,-0.26952772,-3.318418446,-10.10970122,10.64380594,10.2697875,0.932650542
1.64617E+18,10.00768994,-0.198348443,-3.474176579,-10.45526705,11.0191585,10.00470491,1.141912652
1.64617E+18,10.01767188,-0.016046441,-3.461791729,-10.68902437,11.23563534,9.655136479,1.301731685
1.64617E+18,10.02765381,0.060641954,-3.40088221,-10.70757943,11.23485356,9.241061151,1.388790701
1.64617E+18,10.03763574,0.063011314,-3.208735252,-10.51725911,10.99603071,8.789197097,1.401614596
1.64617E+18,10.04761816,0.04950915,-3.178117995,-10.06624202,10.55614103,8.335724046,1.346768205
1.64617E+18,10.05759985,-0.05538228,-3.381811014,-9.451807804,10.03874413,7.914293342,1.241255556
1.64617E+18,10.06758203,-0.214666833,-3.602449323,-8.818751892,9.528594225,7.541837108,1.0984982
1.64617E+18,10.07756396,-0.25577275,-3.615494098,-8.215399045,8.979420847,7.21437034,0.933067408
1.64617E+18,10.0875459,-0.190715318,-3.50274567,-7.704474891,8.465490707,6.935065041,0.765990809
1.64617E+18,10.09752808,-0.089471597,-3.205231627,-7.321626498,7.992980015,6.694889738,0.608899506
1.64617E+18,10.10751001,-0.000300444,-2.734400999,-7.008973922,7.523474221,6.479527384,0.478610013
1.64617E+18,10.11749194,-0.021101094,-2.13282919,-6.766679078,7.094882053,6.273367806,0.425610397
1.64617E+18,10.12747388,-0.093602997,-1.403541102,-6.567254237,6.716213022,6.061110088,0.487728183
1.64617E+18,10.13745581,-0.191108263,-0.56139645,-6.43402767,6.46130021,5.83433339,0.635298086
1.64617E+18,10.14743774,-0.319630598,0.368474416,-6.323046837,6.341833995,5.577643568,0.82142476
1.64617E+18,10.15741992,-0.481080512,1.25854694,-6.168752932,6.314181783,5.280889694,1.00685225
1.64617E+18,10.16740161,-0.693864746,1.970268976,-5.894759465,6.253926549,4.942874986,1.159094945
1.64617E+18,10.17738403,-0.914194574,2.527504215,-5.571994076,6.186367857,4.57409499,1.265112675
1.64617E+18,10.18736597,-1.151385519,2.892490205,-5.203530182,6.063737672,4.193492022,1.29497721
1.64617E+18,10.1973479,-1.39279379,3.059139733,-4.774921323,5.839356479,3.828745349,1.228818716
1.64617E+18,10.20733008,-1.569713369,3.016882308,-4.273936964,5.46187844,3.498394259,1.078780267
1.64617E+18,10.21731201,-1.719469046,2.816283748,-3.719648884,4.972304875,3.22671578,0.87245449
1.64617E+18,10.22729395,-1.726343316,2.583695473,-3.183226132,4.448446038,3.031346755,0.650100194
1.64617E+18,10.23727588,-1.557402753,2.403715338,-2.638752759,3.894401994,2.920778568,0.468279811
1.64617E+18,10.24725806,-1.401642283,2.270083698,-2.065910786,3.374295254,2.893123127,0.415111336
1.64617E+18,10.25723975,-1.300715518,2.153179904,-1.510137436,2.934034703,2.940135455,0.487289334
1.64617E+18,10.26722192,-1.218634909,2.036747235,-0.975497476,2.566126588,3.056395555,0.598063579
1.64617E+18,10.27720386,-1.083417314,2.061658974,-0.491710335,2.380338181,3.240630512,0.694631813
1.64617E+18,10.28718604,-1.038482778,2.181715678,0.005958032,2.416270945,3.480557299,0.766669925
1.64617E+18,10.29716797,-1.029815488,2.267051783,0.48007192,2.535845573,3.764803471,0.842559854
1.64617E+18,10.3071499,-1.103570021,2.364605563,0.852239929,2.745093652,4.088667756,0.926211984
1.64617E+18,10.31713086,-1.088436749,2.55007319,1.193510112,3.018614619,4.441268084,1.014555184
1.64617E+18,10.32711304,-1.172801086,2.76053205,1.475829509,3.342764174,4.823138908,1.120361752
1.64617E+18,10.33709497,-1.234395226,2.942909894,1.7042215,3.617847584,5.234127342,1.248431058
1.64617E+18,10.3470769,-1.28406059,3.077599519,1.91288354,3.84441853,5.678035314,1.377356074
1.64617E+18,10.35705884,-1.233244303,3.286618117,2.111794001,4.0966357,6.152006793,1.476748557
1.64617E+18,10.36704102,-1.142208818,3.535218784,2.373236029,4.408476163,6.652628514,1.542225159
1.64617E+18,10.37702295,-1.015986723,3.80643811,2.706184374,4.779606047,7.168296002,1.567546572
1.64617E+18,10.38700488,-0.901166019,4.225684389,2.997625819,5.258732671,7.680490925,1.539917295
1.64617E+18,10.39698682,-0.779106012,4.684614445,3.285132847,5.774488418,8.177575506,1.479035371
1.64617E+18,10.40696875,-0.72257427,5.123937005,3.542571485,6.271096932,8.651291943,1.38940537
1.64617E+18,10.41695093,-0.71007763,5.559129334,3.916740313,6.837322859,9.081993418,1.244859078
1.64617E+18,10.42693262,-0.769358233,5.943941721,4.42940342,7.452648518,9.444613139,1.05127925
1.64617E+18,10.43691504,-0.810781838,6.364974008,4.872762688,8.0569273,9.712858671,0.827114158
1.64617E+18,10.44689771,-0.794608409,6.726015643,5.274149778,8.584133319,9.887012549,0.616692994
1.64617E+18,10.45687964,-0.814548789,7.142237314,5.584522134,9.102852907,9.986433018,0.458480521
1.64617E+18,10.46686182,-0.834390969,7.63096425,5.706513021,9.565151046,10.03042809,0.387140981
1.64617E+18,10.47684351,-0.729411714,8.006018044,5.780348658,9.90155528,10.04296775,0.373663616
1.64617E+18,10.48682568,-0.561151243,8.407692134,5.800008467,10.22957848,10.05488521,0.370853307
1.64617E+18,10.49680762,-0.389731139,8.784754346,5.759430957,10.51165278,10.05024096,0.368922293
1.64617E+18,10.50678955,-0.332839623,8.869115467,5.755384897,10.57811168,10.00030274,0.335356408
1.64617E+18,10.51677148,-0.359310428,8.663678235,5.856349363,10.46352008,9.908314319,0.286909887
1.64617E+18,10.52675391,-0.497212001,8.183114148,5.95900602,10.13510383,9.778015284,0.300719603
1.64617E+18,10.5367356,-0.623550124,7.735533462,5.981859656,9.798466086,9.63003712,0.426412357
1.64617E+18,10.54671777,-0.455160327,7.706069467,5.670439253,9.578338002,9.45998783,0.620319189
1.64617E+18,10.55669971,0.04810922,8.04137285,5.138006447,9.54280368,9.269991588,0.815298024
1.64617E+18,10.56668164,0.619565,8.441572776,4.718336681,9.690547599,9.058803379,0.975133637
1.64617E+18,10.57666382,0.975841759,8.882629029,4.534496948,10.02072992,8.821825928,1.075589211
1.64617E+18,10.58664575,0.908857596,9.008563686,4.660044651,10.18313596,8.539388413,1.094349017
1.64617E+18,10.59662769,0.312159531,8.758438001,4.841268649,10.01227057,8.216443792,1.036609844
1.64617E+18,10.60660962,-0.616446283,8.35497995,4.8057946,9.658227463,7.866823679,0.958620706
1.64617E+18,10.61659155,-1.529478389,7.891449415,4.393293411,9.160529734,7.487213783,0.925104053
1.64617E+18,10.62657349,-2.083368117,7.537500953,3.709482295,8.655322191,7.079788568,0.993112803
1.64617E+18,10.63655566,-2.140168593,7.273472415,2.844898432,8.097973183,6.628215518,1.182624186
1.64617E+18,10.64653735,-1.751669188,7.23534756,1.881183749,7.67837558,6.144667733,1.442764702
1.64617E+18,10.65651855,-1.082048217,7.263680505,1.134333701,7.430921596,5.639135906,1.682544377
1.64617E+18,10.66650049,-0.362083692,7.285652682,0.617963556,7.320773085,5.114549127,1.851427288
1.64617E+18,10.67648291,0.243987912,7.189870588,0.183719322,7.196354769,4.58598639,1.89998278
1.64617E+18,10.6864646,0.670157854,6.91497345,-0.296364289,6.953689751,4.078853323,1.810243587
1.64617E+18,10.69644678,0.875287628,6.411127856,-0.768421829,6.516069438,3.598245539,1.610123876
1.64617E+18,10.70642871,0.852414117,5.702026816,-1.060580482,5.862128504,3.156801991,1.330504221
1.64617E+18,10.71641064,0.608632249,4.907985393,-1.188051262,5.086277581,2.760592387,1.019474002
1.64617E+18,10.72639282,0.22592224,3.96332437,-1.173558042,4.139591694,2.425891869,0.700522015
1.64617E+18,10.73637476,-0.198375039,3.074050887,-1.074585627,3.26249533,2.183497701,0.434446545
1.64617E+18,10.74635669,-0.659796326,2.372178629,-0.904359993,2.623057307,2.04980995,0.247180098
1.64617E+18,10.75633862,-1.255009414,1.658066483,-0.670989628,2.185053814,2.013939015,0.177630738
1.64617E+18,10.76632056,-1.663367219,1.075415648,-0.467449169,2.035145707,2.061014732,0.260016329
1.64617E+18,10.77630249,-2.002488846,0.575229161,-0.418183326,2.125024108,2.163877471,0.396879404
1.64617E+18,10.78628491,-2.097613938,0.144879596,-0.437335771,2.147611908,2.298115691,0.55611253
1.64617E+18,10.7962666,-2.021814309,-0.240209855,-0.52099079,2.101633954,2.468413824,0.720425712
1.64617E+18,10.80624878,-1.684785271,-0.610065496,-0.632014293,1.900032469,2.669321639,0.857269429
1.64617E+18,10.81623071,-1.247549745,-0.880978533,-0.832204857,1.739272396,2.933942388,0.978768813
1.64617E+18,10.82621265,-0.711857791,-1.1555951,-1.049434819,1.715650019,3.268951882,1.080564231
1.64617E+18,10.83619458,-0.203193837,-1.419345989,-1.285368896,1.925617816,3.662465859,1.157067986
1.64617E+18,10.84617676,0.190548218,-1.634839336,-1.555076648,2.264347955,4.086423463,1.21809971
1.64617E+18,10.85615869,0.489188561,-1.750212852,-1.936693454,2.655810989,4.528638468,1.277597604
1.64617E+18,10.86614063,0.706174923,-1.861210051,-2.328931023,3.063773097,4.981827645,1.335361083
1.64617E+18,10.8761228,0.857210704,-1.926321114,-2.752704717,3.467406305,5.435817468,1.377169404
1.64617E+18,10.88610449,0.785851029,-2.008448193,-3.18992826,3.850593238,5.895292026,1.409885703
1.64617E+18,10.89608667,0.617940029,-1.779451805,-3.65371803,4.11071211,6.369092352,1.43895814
1.64617E+18,10.90606885,0.447682758,-1.634708988,-4.218483664,4.546239958,6.863197791,1.426921955
1.64617E+18,10.91605078,0.284049435,-1.620270128,-4.816191491,5.089367333,7.359591102,1.397683226
1.64617E+18,10.92603271,0.206806256,-1.537634515,-5.433630146,5.650789794,7.846512073,1.369856768
1.64617E+18,10.93601465,0.489522981,-1.659796083,-5.917352405,6.165193855,8.320172814,1.347458037
1.64617E+18,10.94599658,0.93250063,-1.746281357,-6.38672056,6.686498001,8.779232536,1.316714674
1.64617E+18,10.95597876,1.297448041,-1.953150084,-6.794476016,7.187702762,9.214080086,1.271034259
1.64617E+18,10.96596069,1.453144799,-2.204627183,-7.130484333,7.603671326,9.631762263,1.221838906
1.64617E+18,10.97594263,1.514782632,-2.395263736,-7.547611428,8.062151888,10.03996111,1.156199913
1.64617E+18,10.98592358,1.577388433,-2.612431154,-8.028140444,8.588596497,10.42368918,1.069645494
1.64617E+18,10.99590576,1.704640018,-2.775037545,-8.445581428,9.051766491,10.75489503,0.956990318
1.64617E+18,11.0058877,1.951978117,-2.79856572,-8.877004175,9.510173068,11.00780753,0.793743069
1.64617E+18,11.01586963,2.235129873,-2.672056479,-9.329392553,9.958577046,11.16120674,0.618334888
1.64617E+18,11.02585156,2.515148591,-2.61151287,-9.73406641,10.38739721,11.21964701,0.522026245
1.64617E+18,11.0358335,2.730951735,-2.636973475,-10.06356374,10.75579107,11.18753954,0.578992478
1.64617E+18,11.04581592,2.686724471,-2.831178534,-10.32165587,11.0349735,11.07115842,0.746745008
1.64617E+18,11.05579761,2.613598444,-2.977811111,-10.65148638,11.36452453,10.86406908,0.979075622
1.64617E+18,11.06577979,2.622183902,-2.730584655,-11.05543776,11.68565981,10.54515066,1.246900482
1.64617E+18,11.07576172,2.607290284,-2.198900037,-11.40014786,11.89943256,10.10961999,1.506150745
1.64617E+18,11.08574365,2.480581136,-1.567484295,-11.53322596,11.90065505,9.572104666,1.716010255
1.64617E+18,11.09572559,2.054773306,-1.32554367,-11.31980065,11.58089142,8.965273604,1.852785262
1.64617E+18,11.10570776,1.394628312,-1.716690521,-10.82042372,11.04416516,8.337031144,1.923155268
1.64617E+18,11.11568945,0.786276707,-2.3617794,-10.24491048,10.54297984,7.719653489,1.945835194
1.64617E+18,11.12567163,0.450119191,-3.015608635,-9.59345324,10.06632246,7.119812118,1.907214131
1.64617E+18,11.13565381,0.427334528,-3.335959363,-8.9830306,9.591979902,6.557130955,1.780748393
1.64617E+18,11.1456355,0.647788201,-3.216401841,-8.342053833,8.964080126,6.050421048,1.551219892
1.64617E+18,11.15561768,0.847285449,-2.778642876,-7.641821744,8.175340264,5.613071174,1.256654488
1.64617E+18,11.16559985,0.917659546,-2.133147754,-6.952816566,7.330353101,5.252068937,0.949796974
1.64617E+18,11.17558179,0.909983751,-1.409863875,-6.304794556,6.524279345,4.962604551,0.673084295
1.64617E+18,11.18556372,0.835611378,-0.568632247,-5.744097194,5.832344433,4.737615085,0.453766516
1.64617E+18,11.19554565,0.633542233,0.259998844,-5.25402469,5.298466816,4.573578704,0.298202244
1.64617E+18,11.20552759,0.347531143,1.019997712,-4.749685467,4.870388615,4.454246413,0.209955285
1.64617E+18,11.21550977,-0.057132339,1.677481962,-4.223253655,4.544566126,4.369031297,0.196246154
1.64617E+18,11.22549146,-0.402680491,2.270277174,-3.793803669,4.439510818,4.307014345,0.226616866
1.64617E+18,11.23547363,-0.623426498,2.741559638,-3.545382451,4.524880835,4.24045146,0.27127858
1.64617E+18,11.24545581,-0.739798961,3.025333325,-3.372461002,4.590581384,4.153636976,0.303377126
1.64617E+18,11.2554375,-0.909925226,3.128423697,-3.197988232,4.565317895,4.049821046,0.313550358
1.64617E+18,11.26541968,-1.136399401,3.001695845,-3.061688249,4.435709241,3.947520679,0.295010302
1.64617E+18,11.27540161,-1.248243281,2.846459106,-2.934267153,4.274384687,3.873451805,0.2531555
1.64617E+18,11.28538281,-1.373050248,2.793027375,-2.808279305,4.191980625,3.832262181,0.215240387
1.64617E+18,11.2953645,-1.598238329,2.754592138,-2.590378897,4.105143899,3.830301732,0.21202027
1.64617E+18,11.30534692,-1.786207709,2.690761179,-2.390710895,4.018237461,3.871365315,0.287577059
1.64617E+18,11.31532886,-1.867916563,2.648864403,-2.212531088,3.924396607,3.961160672,0.426199827
1.64617E+18,11.32531079,-1.732175383,2.714163682,-1.968519502,3.773881964,4.101304873,0.590004513
1.64617E+18,11.33529272,-1.722717819,2.81426364,-1.576033512,3.656735996,4.292956707,0.743758531
1.64617E+18,11.34527466,-1.806512831,2.826967639,-1.168104453,3.552422082,4.527426139,0.865800997
1.64617E+18,11.35525659,-1.889092914,2.877882418,-0.834931652,3.542314231,4.801147674,0.943484743
1.64617E+18,11.36523877,-2.120339565,2.979633066,-0.528321279,3.695020494,5.104198599,0.976596616
1.64617E+18,11.37522046,-2.270950836,3.118700176,-0.187905667,3.86248845,5.415327313,0.973693534
1.64617E+18,11.38520264,-2.443975745,3.379648868,0.116955816,4.17237613,5.734079214,0.934111015
1.64617E+18,11.39518457,-2.58207401,3.681256025,0.416550757,4.515779739,6.053350316,0.89036868
1.64617E+18,11.4051665,-2.681445946,4.046061689,0.779850401,4.916191026,6.370978401,0.850878132
1.64617E+18,11.41514868,-2.819278838,4.361731567,1.179627717,5.325838617,6.682822565,0.831793685
1.64617E+18,11.42513086,-2.903663048,4.628142908,1.590499844,5.690400305,6.996797085,0.852633544
1.64617E+18,11.43511279,-2.915800061,4.85507944,1.985819597,6.001430316,7.321094861,0.908945678
1.64617E+18,11.44509473,-2.883441806,5.058115749,2.379236731,6.28963743,7.667182526,0.99535574
1.64617E+18,11.4550769,-2.71089299,5.296877743,2.79215936,6.572823482,8.028766416,1.082230571
1.64617E+18,11.46505884,-2.544396606,5.441531713,3.200250332,6.806307638,8.397016311,1.148648426
1.64617E+18,11.47504102,-2.391468144,5.5638663,3.609276538,7.050007462,8.764349049,1.168398274
1.64617E+18,11.48502271,-2.21378781,5.824646064,3.926467926,7.365087143,9.110779722,1.121374785
1.64617E+18,11.49500488,-2.061855665,6.104438573,4.2014732,7.692060591,9.420178796,1.019215461
1.64617E+18,11.50498682,-1.893561,6.373124581,4.511433468,8.034632669,9.684669532,0.868479009
1.64617E+18,11.51496875,-1.758888618,6.654232264,4.928855163,8.465583819,9.901263625,0.679482393
1.64617E+18,11.52495093,-1.628094538,6.895227131,5.441543404,8.933378064,10.07225462,0.483591738
1.64617E+18,11.53493311,-1.437900468,7.251680855,5.905998652,9.462306962,10.19737518,0.299605767
1.64617E+18,11.54491504,-1.279870591,7.563992069,6.2662921,9.905476336,10.27538294,0.172767071
1.64617E+18,11.55489697,-1.204824995,7.829696431,6.512748156,10.25532242,10.29460555,0.137669528
1.64617E+18,11.56487915,-1.244265901,8.022714912,6.626507221,10.47963502,10.23023641,0.247589609
1.64617E+18,11.57486084,-1.348444945,8.031046687,6.65092387,10.51431419,10.07372721,0.451320761
1.64617E+18,11.58484204,-1.417932908,7.962463564,6.631813511,10.45907788,9.838542728,0.703034596
1.64617E+18,11.59482397,-1.540294382,7.943513949,6.432805435,10.33696795,9.544096555,0.953475841
1.64617E+18,11.60480591,-1.486611892,8.054123611,6.080524613,10.20057359,9.202402142,1.190828439
1.64617E+18,11.61478784,-1.283522684,8.355827507,5.663337312,10.17549376,8.844970681,1.361738542
1.64617E+18,11.62477002,-1.014820309,8.709975291,5.179982133,10.18458368,8.486745044,1.433878434
1.64617E+18,11.63475171,-0.796689015,9.011483957,4.80259142,10.24238453,8.147835892,1.392449632
1.64617E+18,11.64473389,-0.85576372,8.891616053,4.708548278,10.09770243,7.828701148,1.232336137
1.64617E+18,11.65471582,-1.166651039,8.300009758,4.704488773,9.61163104,7.544663849,0.977642596
1.64617E+18,11.66469775,-1.463667362,7.482835297,4.618866838,8.914543011,7.304665651,0.694291336
1.64617E+18,11.67468018,-1.62242263,6.723266052,4.334898505,8.162469397,7.103931816,0.445391288
1.64617E+18,11.68466211,-1.603084892,6.230005565,3.884147957,7.514616149,6.897239612,0.381163314
1.64617E+18,11.69464404,-1.367561442,5.857684411,3.421116604,6.920023827,6.650610452,0.623051236
1.64617E+18,11.70462598,-0.96759737,5.864027642,2.929887915,6.626258979,6.363434249,0.987768276
1.64617E+18,11.71460791,-0.390550639,6.133529643,2.387061725,6.593237396,6.007968136,1.387818797
1.64617E+18,11.72458984,0.268717426,6.542528961,1.817090924,6.795492159,5.577954332,1.756957638
1.64617E+18,11.73457202,0.808283883,6.911480932,1.138082824,7.051037088,5.077092042,2.031016955
1.64617E+18,11.74455371,1.117891977,7.163159106,0.329089331,7.257329443,4.532954487,2.154438608
1.64617E+18,11.75453589,1.283772567,7.081613626,-0.458866635,7.211649059,3.950894359,2.125853142
1.64617E+18,11.76451782,1.263349957,6.697775637,-1.119475154,6.90720466,3.344959811,1.967753495
1.64617E+18,11.77449976,0.891845964,5.842581534,-1.491492357,6.095547363,2.735554166,1.694912015
1.64617E+18,11.78448169,0.316386501,4.7409191,-1.70562786,5.048324547,2.176930338,1.388282192
1.64617E+18,11.79446411,-0.137065122,3.663075933,-1.717996343,4.048261797,1.711665798,1.097110506
1.64617E+18,11.80444604,-0.498201743,2.62539585,-1.514531287,3.071597852,1.363933062,0.816634634
1.64617E+18,11.81442798,-0.848612094,1.783452858,-1.16510001,2.293099347,1.150088923,0.590006571
1.64617E+18,11.82441016,-1.159244854,1.155845275,-0.716292413,1.78686926,1.054139531,0.46002393
1.64617E+18,11.83439185,-1.364021869,0.797262723,-0.307939575,1.609661546,1.053784747,0.459459713
1.64617E+18,11.84437402,-1.344779263,0.501859389,-0.062399465,1.436728159,1.10644555,0.542777584
1.64617E+18,11.85435596,-1.110765778,0.262158652,0.158983524,1.152303577,1.216296498,0.689765394
1.64617E+18,11.86433789,-0.757939013,0.131239777,0.263656197,0.813148213,1.394973816,0.860371074
1.64617E+18,11.87431885,-0.433543393,-0.056781625,0.261173733,0.509309086,1.651716836,1.017217709
1.64617E+18,11.88430103,-0.109607061,-0.317942499,0.208472655,0.395679148,1.983701755,1.126114317
1.64617E+18,11.89428271,0.139845693,-0.553390254,0.012982231,0.570934435,2.382038025,1.196263143
1.64617E+18,11.90426489,0.264915696,-0.85343703,-0.268785961,0.933156462,2.833168953,1.276177046
1.64617E+18,11.91424683,0.387335622,-1.064417868,-0.703909901,1.333605426,3.319443178,1.381642952
1.64617E+18,11.92422876,0.660932929,-1.093323645,-1.244205111,1.78332142,3.825956571,1.485339275
1.64617E+18,11.93421094,0.66725994,-1.146495847,-1.674502654,2.136269574,4.339964031,1.576136534
1.64617E+18,11.94419312,0.896594619,-1.08254623,-2.109891382,2.535237641,4.873368659,1.641331534
1.64617E+18,11.95417505,0.914175869,-0.946340939,-2.628096925,2.93907675,5.421035103,1.682968866
1.64617E+18,11.96415698,0.859998727,-0.790314511,-3.172399033,3.380578421,5.982110831,1.69720499
1.64617E+18,11.97413916,0.687215225,-0.692114834,-3.702859077,3.82915827,6.550122012,1.681914417
1.64617E+18,11.98412085,0.429034391,-0.659714786,-4.307750386,4.379041847,7.120791261,1.629191812
1.64617E+18,11.99410303,0.241709154,-0.59487611,-5.041517665,5.082243724,7.676418805,1.544661996
1.64617E+18,12.00408496,0.150339907,-0.642498862,-5.758214567,5.795898712,8.192851748,1.45150701
1.64617E+18,12.01406689,0.021274113,-0.978282138,-6.323478214,6.398739349,8.65723236,1.349636891
1.64617E+18,12.02404883,-0.033365679,-1.305283557,-6.799156867,6.923396026,9.066948236,1.217227482
1.64617E+18,12.03403076,-0.14141002,-1.65488493,-7.283335638,7.470315853,9.440284424,1.065612831
1.64617E+18,12.0440127,-0.185730661,-1.961907975,-7.76575792,8.011902075,9.774116453,0.907330099
1.64617E+18,12.05399512,-0.220523742,-2.034242559,-8.301378708,8.549834032,10.05127091,0.733326743
1.64617E+18,12.06397681,-0.144452018,-1.994246649,-8.837319815,9.060690238,10.24228133,0.540881462
1.64617E+18,12.07395898,-0.008263824,-1.901146925,-9.344411259,9.535850759,10.34366571,0.381408089
1.64617E+18,12.08394116,0.181769941,-1.902062286,-9.749853762,9.935317288,10.36774816,0.334340366
1.64617E+18,12.09392285,0.255201234,-2.110342633,-10.02365141,10.24657315,10.3204565,0.415707516
1.64617E+18,12.10390503,0.406336091,-2.56739082,-10.11092638,10.43970483,10.20663054,0.553389163
1.64617E+18,12.11388696,0.481174912,-3.180500506,-9.990834016,10.49589811,10.0415015,0.688965374
1.64617E+18,12.1238689,0.605054975,-3.556785304,-10.02744613,10.65675791,9.833155507,0.822193616
1.64617E+18,12.13385083,0.899032076,-3.518599658,-10.18026587,10.80863615,9.565053772,0.938770867
1.64617E+18,12.14383301,1.094636481,-3.399915411,-10.17472694,10.78344667,9.23162126,1.025955315
1.64617E+18,12.1538147,1.147152412,-3.225493494,-9.883852482,10.45993818,8.850588158,1.084742656
1.64617E+18,12.16379688,0.938265039,-3.026867111,-9.563156885,10.074534,8.456414607,1.142932761
1.64617E+18,12.17377905,0.693294399,-3.062740388,-9.258636178,9.776675288,8.057993458,1.202316109
1.64617E+18,12.18375977,0.461686807,-3.154080117,-8.909301347,9.462400678,7.654327638,1.234719666
1.64617E+18,12.19374194,0.236616653,-3.283721227,-8.492500415,9.108313556,7.263320665,1.219250752
1.64617E+18,12.20372412,0.059693567,-3.418469889,-8.096093452,8.788414469,6.897341102,1.158266971
1.64617E+18,12.21370581,0.066249711,-3.210851805,-7.775291472,8.412438161,6.560529305,1.043403287
1.64617E+18,12.22368799,0.137011785,-2.797918654,-7.467617854,7.975740557,6.257633682,0.890242703
1.64617E+18,12.23367017,0.178416977,-2.282461533,-7.115044771,7.47431103,5.989668952,0.719717897
