time,seconds_elapsed,z,y,x
1646167564856626000,0.0326259765625,-0.03696954821795225,0.025398645150661467,-0.12982991048395634
1646167564866609200,0.042609130859375,-0.026800328642129896,0.03895253872871399,-0.10190496172606944
1646167564876592000,0.052592041015625,-0.03259294056892395,0.09358312358260154,-0.10740472818613052
1646167564886575000,0.0625751953125,-0.056391164785623546,0.12002572482824325,-0.12070786187350749
1646167564896558000,0.07255810546875,-0.05025368494391441,0.10205401480793952,-0.08623276081979274
1646167564906541000,0.082541015625,-0.0067763622671365735,0.0581926612496376,-0.06594517507255077
1646167564916523300,0.092523193359375,-0.00040068975538015364,0.03218611333370208,-0.09949790058434009
1646167564926506000,0.102506103515625,-0.01977759039849043,0.02824059057831764,-0.0800911893248558
1646167564936489200,0.1124892578125,-0.05294949989914894,0.006842413240671158,-0.07827683337926865
1646167564946472200,0.12247216796875,-0.08938333380520343,-0.016598668101429938,-0.07703297079801559
1646167564956455000,0.132454833984375,-0.14136311188936232,-0.06330138256549835,-0.056951136755943293
1646167564966438100,0.142438232421875,-0.08797346700727939,-0.11141688643693923,-0.01988075851202011
1646167564976421000,0.152421142578125,0.032223230473697184,-0.08781506157517432,-0.022667758882045745
1646167564986404000,0.162404052734375,0.04630465505719185,0.0103349315315485,-0.05747428384721279
1646167564996387000,0.172386962890625,-0.03820610427558422,0.11252572446167468,-0.05874678800106048
1646167565006370000,0.1823701171875,-0.03968494465649128,0.13685294098854064,-0.09928747270405291
1646167565016353000,0.19235302734375,0.0006058569386601447,0.07412088274359703,-0.09007482320070266
1646167565026336300,0.202336181640625,-0.0029050737917423247,0.013591302978992461,-0.1011795700609684
1646167565036319000,0.212319091796875,-0.02640636088848114,-0.0176285956710577,-0.11094517727196215
1646167565046302200,0.22230224609375,-0.07604892819672822,-0.06486614766418934,-0.10437632027566432
1646167565056285200,0.23228515625,-0.11831249116957188,-0.12377835536003112,-0.06563713203668593
1646167565066268200,0.24226806640625,-0.07010843223184347,-0.1397311267733574,-0.059064183387160296
1646167565076250000,0.25225,-0.04658493330329656,-0.1434901870459318,-0.1234831718057394
1646167565086233000,0.262233154296875,-0.10710194584727287,-0.25105098257660863,-0.14390461306571958
1646167565096216300,0.27221630859375,-0.08853811515271663,-0.3866051159262657,-0.15270166750550268
1646167565106199000,0.282198974609375,-0.057573360307514664,-0.5478495708495378,-0.21434300790429114
1646167565116182000,0.29218212890625,-0.16380261497348547,-0.6832213333696127,-0.262604057726264
1646167565126165200,0.302165283203125,-0.25370120482444763,-0.7915864310204982,-0.3917845643907785
1646167565136148200,0.312148193359375,-0.19085662611573934,-0.8169149335443973,-0.48621933636665343
1646167565146131000,0.322130859375,-0.16528963866084814,-0.6277887844830751,-0.5034060334891081
1646167565156114200,0.3321142578125,-0.15406243446469306,-0.508040707552433,-0.49991702232956886
1646167565166097200,0.34209716796875,-0.1487295490041375,-0.5555360336989164,-0.40904081961810584
1646167565176080000,0.352079833984375,-0.23063158714324233,-0.48237961207330227,-0.26280513325631616
1646167565186063000,0.36206298828125,-0.2822998150601983,-0.46296062585413456,-0.11610358294844626
1646167565196046000,0.372046142578125,-0.3569119884520769,-0.4660907405734062,-0.060250178301334376
1646167565206029000,0.382029052734375,-0.4131967702537775,-0.32345103287696836,0.07054010164737701
1646167565216012000,0.392011962890625,-0.44322658233642576,0.07311316700577736,0.10376081872582435
1646167565225994000,0.401993896484375,-0.5879875199705362,0.5550596483588218,0.11656593976318835
1646167565235977200,0.411977294921875,-0.6287906550019979,0.5094458981752396,0.12218845582008361
1646167565245960000,0.4219599609375,-0.5776636943548917,0.5248305143117904,-0.013763736936450003
1646167565255943200,0.431943115234375,-0.4109010605320334,0.21904081033170222,0.09901274741590023
1646167565265926100,0.441926025390625,-0.15922960796952246,-0.14920038138628006,0.10667056869268417
1646167565275909000,0.4519091796875,-0.07486410232633352,-0.28526304877996445,-0.23122575364410877
1646167565285892000,0.46189208984375,-0.0734185796931386,-0.6513537844657897,-0.44981005237996574
1646167565295875000,0.471875,-0.11727788742482662,-0.6965899335086345,-0.37697804040312766
1646167565305858000,0.481858154296875,-0.044622108797729015,-0.79661857996881,-0.3614209903091192
1646167565315841300,0.49184130859375,0.15026391896456479,-0.9054933807075023,-0.4279880966722965
1646167565325824000,0.501823974609375,-0.012991291259229182,-0.8714362128049135,-0.4073626572728157
1646167565335807000,0.511806884765625,-0.08995908786654472,-0.9678981066942215,-0.43390287367403507
1646167565345790200,0.521790283203125,0.02806289592385292,-1.0177291823118924,-0.5827694930613041
1646167565355773200,0.531773193359375,0.021376111636310816,-1.4598141933977602,-0.4427110340297222
1646167565365756200,0.541756103515625,-0.4938613755524158,-0.9460638760268688,-0.15841127732396124
1646167565375739100,0.5517392578125,-0.5045986042745411,0.1774140839576721,-0.600211041727662
1646167565385722000,0.56172216796875,-0.6002814766153692,0.11688450419306755,-1.196656593441963
1646167565395704000,0.5717041015625,-0.37486645507663485,-0.11089198578000067,-0.465606171926856
1646167565405687000,0.58168701171875,0.03199000623971224,-0.505731846088171,-0.18118132753670216
1646167565415670300,0.591670166015625,-0.0967874725818634,-1.47270173202157,-0.8320236553490161
1646167565425653200,0.6016533203125,-0.34646015254259105,-1.4790677599221467,-1.1430857467740774
1646167565435636000,0.611635986328125,-0.6284674143970013,-0.9444809907495975,-1.2966606899827717
1646167565445619200,0.621619140625,-0.801305276480317,-0.532535681861639,-1.3705939411997794
1646167565455602200,0.631602294921875,-0.776236009414494,-0.3374748820543289,-1.4337310731142758
1646167565465585000,0.6415849609375,-0.7020511215239763,-0.15127894122600555,-1.1224994703412055
1646167565475568000,0.651568115234375,-0.4181228284791112,0.20705168185234069,-0.3557470363259315
1646167565485551000,0.661551025390625,-0.061730772247910494,-0.06063654727041721,0.25716215893328187
1646167565495534000,0.6715341796875,0.2614244925528765,-0.029788989064097403,1.0617281907752156
1646167565505517000,0.68151708984375,-0.09931859849467874,-0.25142215397655965,1.1868462703064084
1646167565515500000,0.6915,-0.6300543913275003,-0.4155658374726772,1.0250061875775456
1646167565525483000,0.70148291015625,-0.9387871630221605,-0.23361469460725784,0.746601041868329
1646167565535466200,0.71146630859375,-1.0712415767908097,0.2570014154136181,0.26062837373912334
1646167565545449000,0.721448974609375,-1.138948939230293,0.3336550315052271,-0.03293020969927311
1646167565555432200,0.73143212890625,-1.1208650010071695,0.582631545895338,0.04236556204259395
1646167565565415200,0.741415283203125,-1.2801448778592048,1.9214537997812031,-0.27669629596471784
1646167565575398100,0.751398193359375,-1.1233598865628243,1.158612401729822,0.16985417009741066
1646167565585381000,0.761381103515625,-1.312387835946679,-1.2681751847326754,0.5822086443081498
1646167565595364000,0.771364013671875,-0.6564829640477895,-3.34833895252347,0.9373308267340064
1646167565605347000,0.78134716796875,-0.3733445062063634,-0.6318839448422193,0.3074395170137286
1646167565615330300,0.791330322265625,-0.4485188435256481,0.8562392281949519,0.09016542409360408
1646167565625313000,0.80131298828125,-0.022293518742173907,1.2569418430566788,-0.23059183965474367
1646167565635295200,0.811295166015625,-0.01902143826894462,0.49865737765729423,-0.16482918154224752
1646167565645278200,0.8212783203125,0.15408596147075296,-1.3972721047669647,0.5066824248112738
1646167565655261000,0.831260986328125,0.013552797599509357,0.49963002208173274,0.03147343501970172
1646167565665244200,0.841244140625,0.04135492369532585,0.8582283561855554,0.08129735024422406
1646167565675227100,0.85122705078125,0.5689688581805676,-1.4605752408981323,0.6456114414215087
1646167565685210000,0.861210205078125,0.6854139480430632,-2.605835409101844,0.7255741820611059
1646167565695193000,0.871193115234375,0.47202714488506314,-2.625806768506765,0.015775076758861542
1646167565705176000,0.881176025390625,0.5513585288185626,-2.290409861770272,-0.5433525516912341
1646167565715159300,0.8911591796875,0.16150569967534392,-2.394624854004383,-0.675068714313209
1646167565725142000,0.90114208984375,0.3105687549501657,-2.414489245903492,-0.7737266569420694
1646167565735125000,0.911125,0.3365244494616985,-2.067567905589938,-0.9948102251477539
1646167565745108200,0.921108154296875,0.25498364585042,-2.048628811842203,-0.8020676391549408
1646167565755091200,0.93109130859375,0.5415431641817092,-1.8069161509752272,-0.5201654451102018
1646167565765074000,0.941073974609375,0.18688100048303602,-1.492916837054491,-0.6842959768638014
1646167565775057200,0.95105712890625,-0.12465747628211975,-1.7182833432763813,-0.7444570155769586
1646167565785040100,0.9610400390625,0.8303228427805006,-1.7514789259135721,0.0821752290572971
1646167565795023000,0.971023193359375,0.08491115682721137,-1.2545605008780956,0.9390960828408599
1646167565805006000,0.981006103515625,1.1114050987444817,0.24634382779896258,2.27789027967602
1646167565814989000,0.990989013671875,-0.8652794437408446,3.479258411809802,4.608449781005084
1646167565824972800,1.000972900390625,-2.180671137678623,11.00013848479986,7.12564624492824
1646167565834956000,1.0109560546875,-0.8300527936674654,12.47373804244399,5.891690725183486
1646167565844938800,1.020938720703125,0.41897593817710876,4.000878731903433,3.4745293374612927
1646167565854921700,1.030921630859375,0.7503226927399634,0.894246010506153,0.9205077022269368
1646167565864905000,1.040905029296875,0.6768157041110098,1.0631646533191204,-0.3848290096318349
1646167565874888000,1.050887939453125,-0.14864493946060536,0.8479676589339971,-0.5710798955177888
1646167565884870700,1.06087060546875,-0.883032688704878,0.9918617506057024,-0.3319181247100234
1646167565894854000,1.07085400390625,-1.4112427624523638,1.4406588265508413,0.1625944082275033
1646167565904836900,1.0808369140625,-1.32391650730744,1.5263818842828274,0.44600189226865766
1646167565914819800,1.09081982421875,-1.0606045935727655,1.0910627140700817,0.6304124109849334
1646167565924802800,1.100802734375,-0.7197079203762113,0.524603719818592,1.3341279585897923
1646167565934785800,1.110785888671875,-0.6034568917810916,-0.31639000844955445,1.8336524744704366
1646167565944769000,1.12076904296875,-0.7432416484378278,-0.9310264658927917,1.7542574507161974
1646167565954752000,1.130751953125,-0.6397476639546453,-1.2277607567578555,1.5390817913800476
1646167565964734700,1.140734619140625,-0.4311414461366832,-0.993719945693016,1.2411980382189154
1646167565974718000,1.150718017578125,-0.4104745056830346,-0.40627544655799863,0.976565689535439
1646167565984701000,1.160700927734375,-0.27698051973357796,-0.2921346881151199,0.7290075175106525
1646167565994683600,1.17068359375,0.12183686590343713,-0.031841245418787,0.5346498610040172
1646167566004667000,1.1806669921875,0.13076894489973784,0.1479728854179382,0.366570956950821
1646167566014649900,1.19064990234375,0.22382965204343197,0.24360358918011188,0.5687994564304127
1646167566024632800,1.2006328125,0.034264527042955156,0.3600742518752813,0.7653250315606593
1646167566034615800,1.21061572265625,-0.5117537367261946,0.3777636378228664,0.7108125201284885
1646167566044597800,1.22059765625,-0.8933730270639061,0.34239889445304866,0.5869626339022069
1646167566054581000,1.2305810546875,-1.0522367243304849,0.3694377080261707,0.5089388985011726
1646167566064563700,1.240563720703125,-1.1390686200872062,0.5751151789158583,0.640517990740016
1646167566074546700,1.250546630859375,-1.6781681905090808,0.9057043931096792,1.0785624211981892
1646167566084530000,1.260530029296875,-2.278174065053463,1.3985919551938772,1.8727540662810205
1646167566094513000,1.270512939453125,-2.3473080992951987,1.9456658654958008,2.855422748866677
1646167566104495900,1.280495849609375,-2.0192536642760035,2.240159683957696,3.6558757924318313
1646167566114478800,1.290478759765625,-2.199605262990296,2.5324533620268106,4.248225307004153
1646167566124461800,1.3004619140625,-2.8790590605199333,2.4044413146197794,4.590189901693165
1646167566134445000,1.310445068359375,-3.573927869324386,2.015873374187946,4.867932784101367
1646167566144427800,1.320427734375,-3.917426249451935,1.6075924330264328,5.427086423775553
1646167566154410800,1.33041064453125,-3.5994057171911,1.2198381470650435,6.081721129608154
1646167566164394000,1.34039404296875,-3.3409184471338986,1.039431311032176,6.745787096130847
1646167566174377000,1.350376953125,-2.9751772555381057,1.2619798372238873,6.532255404609441
1646167566184359700,1.360359619140625,-2.9561177502810954,1.191231645783782,5.732041430497169
1646167566194343000,1.370343017578125,-3.08220204449594,1.1987702245950698,5.186422395178675
1646167566204326000,1.380325927734375,-3.1873931882858275,1.3967431124567984,4.993634801000356
1646167566214308900,1.390308837890625,-3.0975539274066684,1.6299451346099376,4.927504332488775
1646167566224291800,1.400291748046875,-2.8806349315345288,1.6000824957877398,4.8461739567577835
1646167566234274800,1.41027490234375,-2.801117742705345,1.128354626110196,4.65874818187356
1646167566244258000,1.420258056640625,-2.992051817971468,0.2401163315862417,4.621212524205446
1646167566254240800,1.43024072265625,-2.9279052167534827,-0.4086065198540687,4.42581767013818
1646167566264223700,1.4402236328125,-2.9026117855429647,-0.40842181093692775,4.177880727928876
1646167566274207000,1.45020703125,-2.7852196240887044,0.19568974536061287,4.221030133825541
1646167566284190000,1.46018994140625,-2.2114425619088114,0.6801461637079715,4.149058538070321
1646167566294172700,1.470172607421875,-1.577117361394316,1.5179074859261512,3.451691190448403
1646167566304156000,1.480156005859375,-0.566754762327671,2.4898452233999966,2.352922724306583
1646167566314139000,1.490138916015625,1.2786803582645951,3.5975434304505582,1.4426637366324662
1646167566324121900,1.500121826171875,3.0077392164468764,4.951266900870204,0.23783287855787202
1646167566334104800,1.510104736328125,3.871214825636148,5.571252902647853,-0.8875875024650245
1646167566344087800,1.520087890625,4.145513412809372,5.494603962731361,-2.000853207449615
1646167566354070800,1.53007080078125,3.316100232219696,5.044615046653151,-2.563024149118364
1646167566364054000,1.540053955078125,1.6548399218916892,4.637261741730571,-2.930610968580842
1646167566374036700,1.55003662109375,0.06871754412902518,3.7398914617240426,-4.069915735511482
1646167566384020000,1.56002001953125,-0.8471626992266624,2.7192338247448204,-5.155741425710916
1646167566394003000,1.5700029296875,-1.2093027245253323,1.8327122710108756,-5.313787376853823
1646167566403985700,1.579985595703125,-0.969323755583167,1.6036176841765641,-4.326691233214736
1646167566413969000,1.589968994140625,0.01656242774426937,1.2663713501811027,-2.7294299323275686
1646167566423952000,1.599951904296875,0.9832453134298323,1.204124445104599,-1.093292665079236
1646167566433934800,1.609934814453125,1.3492951325833797,1.2411457235097885,0.11759192181006073
1646167566443917800,1.619917724609375,0.4930032974183559,0.34371991392374035,2.1865523046717046
1646167566453900800,1.62990087890625,0.7755156592506914,0.29215105472803116,4.020084952154756
1646167566463883800,1.6398837890625,1.2704641724526882,0.7109341006815433,4.147658315883577
1646167566473867000,1.649866943359375,1.7812556400179862,0.30211598390340805,2.6344109307229515
1646167566483849700,1.659849609375,2.418841595894098,-0.46642333352863785,0.4215104250907898
1646167566493832700,1.669832763671875,2.361666002732515,-0.9717220488965511,-1.5728084121540187
1646167566503816000,1.67981591796875,2.3560709592044353,-1.305304599687457,-3.0573794456675647
1646167566513799000,1.689798828125,1.9747171879351137,-1.3048176929533482,-3.5584488529026506
1646167566523783000,1.699782958984375,1.7005222072668373,-1.7550456784844397,-3.112439654110372
1646167566533766000,1.709765869140625,2.4943887120485306,-2.1621920626580713,-3.254819541826844
1646167566543748900,1.719748779296875,2.888823498687148,-2.423189269709587,-3.7176477734729647
1646167566553731800,1.72973193359375,3.2119547980904577,-2.793795436993241,-4.080283984790742
1646167566563714800,1.73971484375,3.714702075409889,-3.325779330191016,-4.559668798962235
1646167566573697800,1.74969775390625,4.030957643824816,-4.49309876998961,-5.218180053967237
1646167566583680800,1.7596806640625,3.786236156530678,-5.171268080666661,-6.037712476533651
1646167566593664000,1.7696640625,3.9289012909293173,-5.846027290639281,-6.403427364644408
1646167566603646700,1.779646728515625,3.6015064888626336,-6.357838748902082,-6.414992130231857
1646167566613629700,1.789629638671875,2.957707649821043,-6.7673916096955535,-6.060809274482727
1646167566623613000,1.799613037109375,2.29179883191064,-6.530905743566155,-5.681428849112987
1646167566633596000,1.809595947265625,1.532872707606852,-5.904558974584937,-4.863755790677667
1646167566643579000,1.819578857421875,0.8197558560587466,-5.564553112748265,-3.8310818449512123
1646167566653561900,1.829561767578125,-0.04663359475061297,-5.171090386012196,-2.51168734511286
1646167566663544800,1.839544921875,-1.969985190977156,-3.8320243864983317,-1.089458201482892
1646167566673528000,1.849528076171875,-4.656794709718227,-1.5757272222101688,0.9763695824414491
1646167566683510800,1.8595107421875,-6.526172285303473,1.5266121859073638,3.331650852572918
1646167566693493800,1.86949365234375,-7.284466103053092,5.170023633563519,6.943176631146669
1646167566703477000,1.87947705078125,-6.846728181260824,9.301147286492586,9.39302652876675
1646167566713460000,1.8894599609375,-5.896549271130562,10.617401734739541,10.090136102235316
1646167566723442700,1.899442626953125,-4.616285589197278,7.853292410957812,9.537637244275212
1646167566733426000,1.909426025390625,-2.9620787045121193,4.402968417209387,7.77064160027802
1646167566743409000,1.919408935546875,-1.917927379220724,1.697692390668392,5.823659391486644
1646167566753391600,1.9293916015625,-1.7487386872947215,0.17819851233363151,4.508989582082629
1646167566763374800,1.939374755859375,-1.592677480228245,0.544477464067936,3.8612247620195146
1646167566773357800,1.94935791015625,-0.40616438739895816,3.7760827190458772,3.1044208905667063
1646167566783341000,1.959341064453125,-0.38034605553150175,7.66666626201868,1.4269082413569092
1646167566793323800,1.96932373046875,-1.5076108405783772,9.73948960391879,-0.5155649655774236
1646167566803306800,1.979306640625,-0.8078009221099317,11.075576879882812,0.6905266879469156
1646167566813290000,1.9892900390625,3.317050664812326,10.369799431312083,2.0283575927078723
1646167566823273000,1.99927294921875,4.602562768793105,5.732539443147182,-0.5673354848250747
1646167566833255200,2.009255126953125,2.5377313024297354,-1.1614824042081833,-5.896951422190666
1646167566843238000,2.01923779296875,2.030398743146658,-7.762039191627502,-10.539403133779764
1646167566853220900,2.029220947265625,2.205188323819637,-12.560676321184635,-12.123501878494023
1646167566863204900,2.039204833984375,0.4248591509968042,-13.983051887547969,-13.093449318933486
1646167566873188000,2.04918798828125,-1.715154689861834,-12.045132690656185,-12.353641005945205
1646167566883171000,2.059171142578125,2.7180416923508046,-5.719324572265148,-8.0774179772079
1646167566893153800,2.06915380859375,8.670942673039436,-0.18234978679418562,-4.758565815931559
1646167566903137000,2.079136962890625,10.331169548666477,2.1557371874302627,-3.9319016417890786
1646167566913120000,2.0891201171875,8.416723581820726,4.788117489108443,-3.1262469379276037
1646167566923103000,2.09910302734375,6.0604866183996196,6.195900466495752,-2.2555060139104723
1646167566933086000,2.1090859375,2.8825591775953767,6.121606565272808,-0.2661521055966615
1646167566943069000,2.11906884765625,-1.1185492714107035,6.185073952054977,2.480142744553089
1646167566953052200,2.12905224609375,-3.9111797562777992,4.5237592811912295,3.2394004388988016
1646167566963035000,2.139034912109375,-3.9561049396753307,2.8936820446342226,2.784866280606389
1646167566973017900,2.149017822265625,-2.4886522142231464,2.098333046209812,2.7895535616397855
1646167566983001000,2.1590009765625,-0.4458427561841905,0.7362935828655958,2.7817840966820717
1646167566992984000,2.168984130859375,1.7535837892383337,-0.845879162222147,2.2059692450642583
1646167567002966800,2.178966796875,2.986411766257882,-1.6253952162206171,1.1290402702867983
1646167567012950000,2.188949951171875,3.0180507671028374,-1.273311963099241,0.34631833291910585
1646167567022933000,2.19893310546875,3.2691718923062085,-0.957408276861906,0.023077143400534985
1646167567032916000,2.208916015625,3.7243712365090844,-0.7699076831758022,-0.6148850984420627
1646167567042899000,2.21889892578125,3.1941724731624124,-0.7087853982150554,-1.30459031393826
1646167567052882000,2.2288818359375,2.099761617708206,-0.7470084536254405,-1.7378204029172657
1646167567062865000,2.238864990234375,1.4759353071153163,-0.998212580937147,-2.1302219301626084
1646167567072849200,2.24884912109375,-0.42800797041654587,-1.567877093231678,-1.8947203988954424
1646167567082832100,2.25883203125,-1.3241805650711058,-1.8270640359908341,-1.2745672238573431
1646167567092814800,2.26881494140625,-0.20282208145856856,-1.936881086015701,-0.6192237852334976
1646167567102798000,2.278798095703125,2.028393833065033,-1.7666899390488862,-0.12753595432788134
1646167567112781000,2.288781005859375,2.97343479578495,-1.280854633563757,-0.20493191321939228
1646167567122763800,2.298763671875,2.8148364714562892,-1.0686942303955553,-0.6160808110326528
1646167567132747000,2.3087470703125,0.6170495099343359,-1.7650608765423297,-0.6397481023460626
1646167567142730000,2.31872998046875,-1.0432451702319085,-1.5896376741409302,-1.0865054891571402
1646167567152713000,2.328712890625,-2.8503941070497034,-1.6213158379524946,-0.5190878424739465
1646167567162696000,2.338696044921875,-3.7786066845655437,-1.5484744736254215,0.39650136377960443
1646167567172679000,2.348678955078125,-3.54968453168869,-0.19985972452163694,1.2246344414308667
1646167567182662000,2.358661865234375,-2.945274869227409,0.8749497738838196,2.089748757737875
1646167567192645000,2.36864501953125,-2.2757481530807913,1.752747338414192,2.880039303728938
1646167567202627800,2.3786279296875,-1.716581507794559,2.503400870543718,3.5748990524441
1646167567212611000,2.388611083984375,-2.0734511184096336,2.4418998153984544,3.728422557726502
1646167567222594000,2.398593994140625,-2.8043972027674315,1.9161983634710311,3.3993174446105954
1646167567232578000,2.408578125,-3.4052561870098113,1.668175204282999,3.2600533508270977
1646167567242560800,2.418560791015625,-3.6997348079025745,2.0130045407533643,3.2557416251078246
1646167567252544000,2.4285439453125,-3.338181423385441,2.578779644393921,3.226380213806033
1646167567262527000,2.43852685546875,-2.4943416580364106,2.881391302859783,3.3716888484507797
1646167567272510000,2.448510009765625,-1.9520447528779505,2.7806039469867945,4.03655297961384
1646167567282493000,2.458492919921875,-1.9934698192000389,2.5667525219917295,5.278043278777599
1646167567292476000,2.468475830078125,-1.9560383525587617,2.0306489185154435,6.952407985350489
1646167567302459000,2.478458984375,-1.9634313854195176,1.6211182695537805,8.02006702747941
1646167567312442000,2.488442138671875,-2.7693688517451283,1.042788220244646,7.947276516556739
1646167567322424800,2.4984248046875,-3.8690813207387924,0.2318471004128456,7.148387069046497
1646167567332408000,2.508407958984375,-4.9038463935256,-0.1771837823331356,6.388676954758167
1646167567342391000,2.51839111328125,-5.07725533349514,-0.22890812435150146,6.216824596580863
1646167567352374000,2.5283740234375,-3.995242187321186,-0.5807119760096073,6.175560273778438
1646167567362357000,2.53835693359375,-2.890316952115297,-1.480522050383687,5.892477491647004
1646167567372340000,2.548340087890625,-2.914657612645626,-2.38994984793067,5.4661091051310295
1646167567382324000,2.558323974609375,-3.254644769781828,-2.3784546404480933,5.185549703997373
1646167567392307000,2.568306884765625,-2.374484567773342,-0.27222587255239483,5.628333218741417
1646167567402290000,2.5782900390625,-0.5309959781389684,1.4209019866794348,5.58548776422739
1646167567412273000,2.58827294921875,0.9068588238418102,2.0753122361063956,4.709551317393779
1646167567422255900,2.598255859375,2.342474980050325,2.753570978632569,2.9063351899802683
1646167567432239000,2.608239013671875,2.7638018652677534,4.695999177381396,0.6702288000013679
1646167567442221800,2.618221923828125,3.0036130764275786,7.648457236111164,-2.0458599316507575
1646167567452205000,2.628205078125,3.5919244215250012,10.23862336691618,-4.132563914865255
1646167567462188000,2.63818798828125,4.125665972045064,11.90550560877919,-5.434920770663022
1646167567472171000,2.6481708984375,5.592759216535091,13.137296643966435,-6.970294355174898
1646167567482154000,2.658154052734375,3.9715328104317185,11.719647521603108,-7.424502934774756
1646167567492137000,2.668136962890625,1.4477702659912406,9.969006800079345,-7.557868033647536
1646167567502120000,2.678119873046875,-2.0431518417358396,7.3551499970853325,-6.986632326513528
1646167567512104000,2.68810400390625,-4.992281048303842,4.179282411420345,-5.344385928735137
1646167567522087200,2.698087158203125,-4.48511478549838,1.9775638095378874,-2.279953788077086
1646167567532070000,2.70806982421875,-2.0907886221796272,0.7177151391237974,0.413505397811532
1646167567542052900,2.718052978515625,-0.3752549429375678,0.47889293900132174,1.6479796807333826
1646167567552036000,2.7280361328125,0.5424918432086706,1.154953294700384,2.358739593891799
1646167567562018800,2.738018798828125,2.237397818028927,0.5985784720897674,2.6355451954498887
1646167567572002000,2.748001953125,3.948448871964216,0.14978841040730476,1.7277540591940284
1646167567581985000,2.757985107421875,5.097036723285913,0.2639034498870373,-0.0711880441620946
1646167567591968000,2.767968017578125,5.251125461235642,0.18349603421986102,-3.2963805094882845
1646167567601951000,2.777950927734375,5.510320587301254,-1.2535720743626355,-5.879384201318025
1646167567611934000,2.787933837890625,4.641979125641286,-3.3794343480110167,-7.243579965913296
1646167567621917000,2.7979169921875,2.057552269140631,-4.796505378225445,-7.393425659465789
1646167567631901000,2.80790087890625,1.3419307412952184,-5.314508092343807,-7.099787581050395
1646167567641884200,2.81788427734375,1.9807450699225067,-5.452860916501283,-6.235158125650883
1646167567651867000,2.827866943359375,3.137458652293682,-5.872710130381583,-5.753567618128657
1646167567661849900,2.837849853515625,4.346329999664426,-6.364027666670084,-5.87133825750649
1646167567671833000,2.8478330078125,5.363752892506122,-6.643475891691446,-6.384216468217969
1646167567681815800,2.85781591796875,6.321834538584947,-6.903995544359088,-7.18066436779499
1646167567691799000,2.867799072265625,6.542866230472922,-7.124698734945058,-7.306935709014534
1646167567701782000,2.877781982421875,6.52121612420082,-7.592229737454653,-7.360819859415292
1646167567711765000,2.887764892578125,6.067221479612589,-7.397827693817019,-7.1797636195629835
1646167567721748000,2.897748046875,5.212458753710985,-7.107243157753348,-6.570171001505852
1646167567731731000,2.90773095703125,4.007052159841359,-6.414494117581844,-5.7712599266856905
1646167567741714000,2.9177138671875,1.9587083024203775,-5.452074150037765,-4.440877292104065
1646167567751698000,2.927697998046875,-1.1404524756610392,-4.235926089662313,-3.0518215192794798
1646167567761681200,2.93768115234375,-4.788351297864318,-2.601599378967285,-1.4378849779233336
1646167567771664000,2.947663818359375,-8.267154951643944,0.3962023808330297,1.4440307872019706
1646167567781646800,2.957646728515625,-8.824669591939449,5.588058491498232,5.719625016516447
1646167567791630000,2.967630126953125,-9.670883685204386,12.048798811948298,10.565021559160947
1646167567801613000,2.977613037109375,-9.520311430943012,16.710234625470637,12.818256413269042
1646167567811596000,2.987595947265625,-6.132745798924565,14.357067571014165,12.6040069288671
1646167567821579000,2.9975791015625,-4.440878461147845,8.172302246516942,11.08997599211335
1646167567831562000,3.00756201171875,-3.0581407854288813,3.7102363281726833,8.136862684345244
1646167567841545200,3.017545166015625,-2.1920023867711422,1.216071488007903,4.60837350089848
1646167567851528200,3.027528076171875,-1.5563246026039124,-1.0347545513927936,3.2075022025957702
1646167567861511000,3.037510986328125,-0.7012973805472255,-2.8622067099183797,4.027296783229708
1646167567871495000,3.047494873046875,0.1286354400023818,-4.184844721722603,5.114377149665355
1646167567881478100,3.05747802734375,2.681262990529835,-3.854937060052156,2.3872288985341785
1646167567891461000,3.067461181640625,3.450498181271553,-3.746161043512821,-2.708895386081934
1646167567901444000,3.077444091796875,1.039672134050727,-2.8192648092925547,-5.977488017195463
1646167567911427000,3.087427001953125,1.8839445917285977,0.8351829961627721,-6.517345420247316
1646167567921410000,3.09741015625,4.412713566154241,6.718153239274025,-6.155436354160308
1646167567931393000,3.10739306640625,0.6718653882272542,12.118731010830402,-6.425162226590514
1646167567941376300,3.117376220703125,-9.641989014631509,13.600533748674392,-4.4327743574082845
1646167567951359000,3.12735888671875,-3.9570676472276447,7.3122712248235935,-4.399636057916283
1646167567961342200,3.13734228515625,3.6428444614231585,-1.4651047010213136,-8.021106891921162
1646167567971325200,3.1473251953125,2.9909552549064156,-5.613606189730763,-9.547578208053112
1646167567981308200,3.15730810546875,1.8265505335107444,-7.115189732843637,-9.376776235711574
1646167567991292000,3.1672919921875,4.557686685234308,-7.04953564967215,-6.555201395910978
1646167568001275100,3.177275146484375,8.735527665674686,-4.618550611519813,-2.9724992685005067
1646167568011258000,3.187258056640625,10.136199934273957,-1.9098785127997397,-1.3511748088501394
1646167568021241000,3.197240966796875,9.61884194779992,-0.42605508278310295,-0.3995671810910105
1646167568031224000,3.20722412109375,7.955402539867162,0.4949643683582544,0.06442585655078291
1646167568041207000,3.21720703125,5.740179144245386,2.5111007773965595,0.9618417292647063
1646167568051190000,3.22718994140625,3.9131872967079278,4.597190428104996,2.6077117243677375
1646167568061173200,3.23717333984375,2.3904198035299777,4.632306749671697,4.151426143984496
1646167568071156000,3.247156005859375,0.6170384040184319,3.250717951726913,4.793063421078026
1646167568081139200,3.25713916015625,-1.3907459178686141,0.7758943563699722,3.505062422890961
1646167568091122200,3.2671220703125,-3.728323773527145,-0.9893541516989469,0.9349479501854627
1646167568101105200,3.277105224609375,-4.514982685017586,-1.5899521469175815,-0.6988508641779423
1646167568111088000,3.287088134765625,-2.6841671875387427,-1.8011071724355219,-1.5313982511401176
1646167568121072000,3.297072021484375,0.20313187806010244,-1.6177707126915455,-1.3156696340963243
1646167568131055000,3.30705517578125,1.8964421081215141,-0.4037900594830513,-1.6037825193494557
1646167568141038000,3.3170380859375,3.3166754017591473,-0.3603618366450071,-1.9585574957728384
1646167568151021000,3.32702099609375,4.287494948858022,-0.6335498322278261,-2.2608222404971716
1646167568161004000,3.337004150390625,4.383776225483417,-0.7718377744555472,-2.6157126599937675
1646167568170987000,3.346987060546875,1.8409855938374995,-1.1401555385410784,-2.6709868034482
1646167568180970200,3.35697021484375,0.2925719104886055,-1.0217857642263173,-2.0480182787284256
1646167568190953000,3.366952880859375,-0.2720926015615463,-1.1954887187063694,-1.2654580347284674
1646167568200936200,3.376936279296875,-0.35139344422630964,-1.2072738490462303,-0.20056292262123895
1646167568210919200,3.386919189453125,-0.2756956675548106,-0.6730050597816706,1.1435831749022007
1646167568220902100,3.396902099609375,-0.1850350803554058,-0.38054245488643645,1.9694448004901408
1646167568230885000,3.406885009765625,-0.012076295306161045,-0.32990181645154953,2.529682728269696
1646167568240868000,3.4168681640625,-0.07132350711002945,-0.1756149255812168,2.7695556064888835
1646167568250852000,3.42685205078125,-1.008396194364503,-0.34952012463510035,2.671869431501627
1646167568260835000,3.4368349609375,-2.3946904665865003,-0.7836059536606073,2.49117296487242
1646167568270818000,3.446818115234375,-3.8168086971879003,-1.0180348872601985,2.1812246799081563
1646167568280801000,3.456801025390625,-3.762679632115364,-0.608135404986143,1.8564964667022228
1646167568290784000,3.466783935546875,-2.7251427565276622,0.46792555478513237,1.469136879146844
1646167568300767200,3.476767333984375,-1.5473428392469881,1.141143380534649,1.921032651759684
1646167568310750000,3.48675,-0.5383551817953586,1.3596972841322421,2.7357497829988597
1646167568320733200,3.496733154296875,-1.4628405554816126,1.0097802691340445,3.030394115847349
1646167568330716200,3.506716064453125,-3.423523665106296,0.8873363772481679,2.4184853298023343
1646167568340699100,3.51669921875,-4.900093470732868,1.456819687756896,2.139400823526829
1646167568350682000,3.52668212890625,-5.0430479434669016,2.0414140581578013,2.676923207759857
1646167568360665000,3.5366650390625,-3.915275793419778,2.3407623309135435,4.294184217363596
1646167568370648000,3.54664794921875,-2.198746892595291,2.1382523841440677,6.651489102277159
1646167568380631300,3.55663134765625,-1.1590563461050392,1.0762988601803778,8.12465669824481
1646167568390615000,3.566614990234375,-1.4404767479822038,0.3258101632237434,7.993831346982717
1646167568400598000,3.576597900390625,-2.7048259446859357,0.636921939009428,7.291289227071404
1646167568410581000,3.5865810546875,-4.058227928066254,1.5430992103278636,6.645988166773319
1646167568420564200,3.596564208984375,-4.6180946844458575,2.449601475816965,6.223653565818071
1646167568430547000,3.606546875,-4.370238698518276,3.4455420201689004,6.394567766362428
1646167568440530200,3.6165302734375,-2.8645570724368095,3.879453077149391,6.5513564109206195
1646167568450513200,3.62651318359375,-1.9161073241867124,3.0341210274159907,6.0276680523812765
1646167568460496100,3.63649609375,-1.8471572682097552,1.184305061390996,5.454826663616299
1646167568470479000,3.64647900390625,-1.8959061015486716,-0.2043371621966362,4.748284075891971
1646167568480462000,3.656462158203125,-2.430212884736061,0.052954760596156114,4.763121287278831
1646167568490445000,3.666445068359375,-2.5385072552382946,1.8430536322832107,4.148916206990182
1646167568500428300,3.67642822265625,-1.039783777731657,2.7199463569283484,2.347168398563564
1646167568510411000,3.686410888671875,0.4765221547493711,3.163956198596954,0.6357213310480118
1646167568520394000,3.69639404296875,2.4113234753489494,4.702397938507795,-1.4684130949169396
1646167568530378000,3.7063779296875,3.7489281701385972,7.104936634376645,-3.2098852983400223
1646167568540361200,3.716361328125,4.259139791989326,8.434133566305041,-4.166218931707739
1646167568550344000,3.726343994140625,4.828941082406044,8.794353364130854,-4.893412677794695
1646167568560327200,3.7363271484375,4.903717798709869,9.077776338002085,-5.618551244917511
1646167568570310100,3.74631005859375,3.9622932729214426,8.448091364508867,-5.901090421691537
1646167568580293000,3.756293212890625,2.071901989271492,6.943260217776894,-5.437301528319716
1646167568590276000,3.766276123046875,-0.10367547852993012,5.710306568551063,-4.4622681629180905
1646167568600259000,3.776259033203125,-1.8431402876533567,4.263010495942831,-3.038704848074913
1646167568610242000,3.786241943359375,-2.5872739164948464,2.867493125888705,-1.7361719050578772
1646167568620225300,3.796225341796875,-2.1819323897860943,1.884043814319372,-0.8745869319207966
1646167568630208000,3.8062080078125,-0.2915047196485102,0.7097592116832733,-0.4552873147472739
1646167568640191000,3.81619091796875,1.1405025984130799,-0.10622399396896362,0.6816995306298136
1646167568650174200,3.82617431640625,2.4025071316868067,-0.2996826192766428,2.2571217785440383
1646167568660157200,3.8361572265625,4.628815984946489,-0.7232499768972397,3.0251655675441027
1646167568670141200,3.84614111328125,5.355273817974329,-0.6384867041081189,1.7722051953390239
1646167568680124200,3.856124267578125,4.579149744501709,-0.25067981117665766,-1.8103838270857928
1646167568690107100,3.866107177734375,4.168314442682266,-1.9509388374626635,-4.115929006406665
1646167568700090000,3.876090087890625,3.9581893447339533,-3.454951069027185,-5.193814843517542
1646167568710073000,3.886072998046875,2.620288881868124,-3.1992788563907144,-5.982601999208331
1646167568720056000,3.89605615234375,1.9039803946718572,-3.679703242743015,-6.467209808725118
1646167568730039000,3.9060390625,2.022759334309399,-4.328987819719314,-6.028720191782712
1646167568740022300,3.916022216796875,3.584599193203449,-4.954158530658483,-5.57107228538394
1646167568750005000,3.9260048828125,4.31541083752662,-5.9213037731587885,-5.6956339000761504
1646167568759988000,3.935988037109375,4.11063236130327,-6.350858388495445,-6.470086825466155
1646167568769971200,3.94597119140625,4.762139290504157,-6.525590686023235,-6.951261737924813
1646167568779954200,3.9559541015625,5.235424034234881,-6.667894878154993,-7.050601233077049
1646167568789937000,3.96593701171875,5.050928467583656,-6.885846724206209,-7.175518237078189
1646167568799920000,3.975920166015625,4.86080220156908,-6.9414166357368225,-7.1403358645379535
1646167568809903000,3.985903076171875,4.555039970117807,-6.625543344637752,-6.78420187472105
1646167568819887000,3.99588720703125,4.301451285757124,-6.138448394480347,-6.1707309539258475
1646167568829870800,4.005870849609375,3.9255978654697534,-5.365492429649829,-5.5274780583292245
1646167568839854000,4.01585400390625,3.1050615265578028,-4.631466791716218,-4.872293317398428
1646167568849836800,4.0258369140625,0.2198036113977432,-3.249907804387808,-4.879637542681396
1646167568859819800,4.03581982421875,-4.624536115670204,-2.1693729140728713,-3.9400267883166666
1646167568869803000,4.045802978515625,-9.997413394874334,-0.015662848556041716,0.2139458252802491
1646167568879786000,4.055785888671875,-11.936122865360975,5.097216171506047,8.879565549731254
1646167568889769000,4.06576904296875,-9.622470659691094,13.3132318875432,15.091508804011344
1646167568899752000,4.075751953125,-6.498115234598517,17.762700190120935,14.613320798408985
1646167568909735000,4.08573486328125,-5.1225084336727855,12.927671896755694,12.580426146793364
1646167568919718000,4.0957177734375,-3.164704386615753,6.405805784213543,9.684235334208607
1646167568929700900,4.105700927734375,-1.5332190368264913,2.452861938917637,6.659821461814642
1646167568939683800,4.115683837890625,-0.8098375425040721,0.5010813899338246,4.649387356071174
1646167568949667000,4.1256669921875,-0.8722013519585132,-0.9809697697132825,4.2502956835374235
1646167568959649800,4.13564990234375,-0.8889560874044895,-0.913172244772315,4.941827456873655
1646167568969633800,4.1456337890625,1.0498061361826956,-0.06575578998029231,2.745773748885095
1646167568979616800,4.15561669921875,2.7493688507676124,0.16458558204472065,-0.7944190240979194
1646167568989600000,4.16560009765625,0.9304299613043665,1.5138380445301531,-1.605259021642804
1646167568999583000,4.1755830078125,3.445583521223068,2.7552356969743967,-0.9442647176504134
1646167569009566000,4.18556591796875,7.697258968681097,6.367565193146467,-1.8266531171023845
1646167569019549000,4.195548828125,4.1119513349473475,11.203715768539904,-3.959556833694875
1646167569029532000,4.205531982421875,-5.9372343327403065,10.6165822350502,-5.407150135684013
1646167569039515000,4.215514892578125,-6.575062280678749,2.128416049784422,-10.739397298336028
1646167569049497900,4.225497802734375,-3.1944992208987473,-5.568650026673078,-15.824955180752276
1646167569059480800,4.235480712890625,-4.190507277528941,-7.169864156839251,-16.039187129497527
1646167569069464000,4.245464111328125,-0.12406126395463943,-7.885764940017461,-13.014110993802547
1646167569079446800,4.25544677734375,7.232195817589759,-5.783787984347343,-9.152811997503042
1646167569089429800,4.2654296875,11.56866668654084,-1.865028148204088,-6.027113925629854
1646167569099413000,4.2754130859375,11.025044962519406,1.4245786293655633,-4.382328949284553
1646167569109396000,4.28539599609375,8.695150062578916,2.7804508022516963,-3.612893559795618
1646167569119380000,4.2953798828125,6.915179201674461,2.743173503258824,-3.193913529965281
1646167569129363000,4.305363037109375,5.428555327284336,2.4949691422849893,-2.4420475533060726
1646167569139346000,4.315345947265625,4.090282523974776,3.0953029336094855,-0.6550836186438799
1646167569149329000,4.325328857421875,2.7796190276026724,3.269627819380164,1.2563505991652608
1646167569159312100,4.33531201171875,0.5434095425754786,2.922694204106927,2.5480221025586127
1646167569169294800,4.345294921875,-2.280577619063854,2.987357522675395,3.6549352967113253
1646167569179277800,4.35527783203125,-4.139862255179882,1.2823510096013546,4.761791499979794
1646167569189261000,4.365260986328125,-4.978296362093091,-0.9749836810410022,5.4009886904448265
1646167569199243800,4.375243896484375,-3.8700989733487363,-2.657180396413803,4.873625442785024
1646167569209226800,4.385226806640625,-0.9125953216671943,-3.541976441529393,3.4701097674533723
1646167569219210000,4.3952099609375,2.491571316540241,-2.591523390632868,1.7552748110651968
1646167569229193000,4.40519287109375,4.4296658699989315,-1.7651637523949146,0.9170815271705388
1646167569239175700,4.41517578125,3.8761400070786474,-1.834777971369028,0.5203676896840334
1646167569249159000,4.425158935546875,3.291737359857559,-2.0662188290685415,-0.4283195205837488
1646167569259142000,4.435141845703125,3.1191373981833457,-1.9683640195161103,-0.9673121234998107
1646167569269124900,4.445124755859375,0.8783095326405018,-1.911502314609289,-1.1725181774854658
1646167569279107800,4.45510791015625,-0.6422890920657665,-1.3646212965309619,-1.228527941738069
1646167569289090800,4.4650908203125,-1.166615748508647,-0.6242226164340973,-0.5955547403544187
1646167569299074800,4.47507470703125,-0.963357540655136,-0.08975450520515442,0.3212409556120634
1646167569309058000,4.48505810546875,-1.7677204511404037,-0.8815671461969613,1.5441484271198511
1646167569319041000,4.495041015625,-2.4526889204382893,-1.245643034929037,2.3963565001025793
1646167569329023700,4.505023681640625,-3.1963772897303104,-1.1992600539386271,3.0807655819520354
1646167569339007000,4.515007080078125,-3.89284564268589,-1.0270230803579092,3.2019004370659587
1646167569348990000,4.524989990234375,-2.969960397672653,-0.32351708385050293,2.721004341548681
1646167569358972700,4.53497265625,-2.165695832995325,0.3220452577322721,1.731725008651614
1646167569368956000,4.544955810546875,-3.1645687775373457,0.8463163845956325,0.1660138612821698
1646167569378939000,4.55493896484375,-2.746460269844532,1.0583581298202276,-0.458563852199912
1646167569388921900,4.564921875,-1.8852604966327546,1.2924819429934025,-0.1347754040621221
1646167569398904800,4.57490478515625,-2.2523360055722295,1.269077102008462,0.17562464325763283
1646167569408887800,4.5848876953125,-2.9124186015471816,1.9354431621670722,0.8241432773627341
1646167569418871000,4.59487109375,-2.4408836240932343,2.881501192975044,1.4296185232289134
1646167569428854000,4.60485400390625,-1.3937119280673562,2.8884295309334993,2.502479664045572
1646167569438836700,4.614836669921875,-0.3347922188416123,2.3900790272682904,3.8345582888901233
1646167569448820000,4.624820068359375,0.20693930751904843,2.1229852569073437,4.968223880890012
1646167569458803000,4.634802978515625,-0.07604980497956275,2.0857108805239197,5.780375545555353
1646167569468786000,4.644785888671875,-1.2326137497469782,2.1495137828707693,6.015715164259076
1646167569478769000,4.654768798828125,-2.2524095091998575,2.2881249657034872,5.9282566610366105
1646167569488753000,4.6647529296875,-2.7976781236454844,2.1227146232724188,5.854550788834691
1646167569498735900,4.67473583984375,-3.055955258083343,2.0832260779708625,5.82575665602684
1646167569508718800,4.68471875,-3.7370994929179546,2.3499235424906013,5.898681606984138
1646167569518701800,4.694701904296875,-4.784509235483408,2.141531551945209,5.727435398006439
1646167569528684800,4.704684814453125,-5.0784313915371895,1.4183546402841805,5.747684405308962
1646167569538668000,4.71466796875,-3.9099370627403256,0.6201321322500706,6.2627434671908615
1646167569548651000,4.724651123046875,-2.4048471189416945,-0.44180736318826674,6.8558157430797815
1646167569558633700,4.7346337890625,-1.87379013133049,-1.723213200893998,7.168720247501135
1646167569568617000,4.744616943359375,-1.742816311508417,-2.341292492267489,6.827033300709724
1646167569578600000,4.754599853515625,-1.7983271863281727,-1.36068980230093,6.211818166595697
1646167569588583000,4.7645830078125,-1.9038228660225867,0.09570435352027416,5.578109928935766
1646167569598566000,4.77456591796875,-0.596224054450728,1.0964093357950448,4.487958192230761
1646167569608548900,4.784548828125,1.2752186735033988,2.997110854926705,2.7576018415838477
1646167569618531800,4.79453173828125,1.9142203413963317,5.732047275716066,0.4195102277169004
1646167569628515000,4.80451513671875,2.006380738699436,8.17830996249914,-2.1323665409758688
1646167569638497800,4.814497802734375,3.6035482238233087,10.83558855859041,-4.526837957984209
1646167569648480800,4.824480712890625,5.3134191280633205,11.345796673309803,-5.3081496632277965
1646167569658464000,4.834464111328125,4.6556467087268825,9.478962936988472,-5.448288786280155
1646167569668446700,4.84444677734375,2.9552058961331844,8.224623385384678,-5.771255250510573
1646167569678430000,4.854429931640625,0.2821452820856124,7.378507491797208,-6.054397653874754
1646167569688414000,4.8644140625,-3.3901620782524344,4.777539396470785,-4.853114277414977
1646167569698397000,4.87439697265625,-4.189541939628124,2.419405074995756,-3.2887837707489727
1646167569708380000,4.8843798828125,-2.546006086561084,1.4038368701100348,-2.312984097149968
1646167569718363000,4.89436279296875,0.37328152397274966,0.7277765144109726,-2.8168104018777607
1646167569728345900,4.904345947265625,3.1679601735413074,0.1790788022994995,-3.0861136649817227
1646167569738328800,4.914328857421875,5.799692824965715,-0.5271656792610884,-2.6548294493734836
1646167569748312000,4.92431201171875,5.80134409930408,-1.1890864504486323,-2.04984154863283
1646167569758294800,4.934294677734375,4.979084882122278,-1.5482126078188418,-1.4132424118369817
1646167569768277800,4.94427783203125,5.241606522262096,-2.2485054874986408,0.057712184256315226
1646167569778261000,4.954260986328125,4.718665182697773,-2.6469687990009785,1.1765198143422604
1646167569788244000,4.964243896484375,3.524624909234047,-2.639046773830056,0.5336959578126669
1646167569798227000,4.97422705078125,1.6766043021932244,-2.7880636153429745,-1.261702481587231
1646167569808210000,4.9842099609375,0.12300006446391343,-3.3557734864383932,-2.2025524223580955
1646167569818193000,4.99419287109375,-0.09509469718933104,-4.505875833976268,-2.492868955135345
1646167569828175400,5.00417529296875,2.4682524002730846,-5.578021666130423,-3.2053383025601505
1646167569838158300,5.014158447265625,5.156191507565975,-6.762746998760104,-4.618960069103538
1646167569848141300,5.024141357421875,6.270704070806503,-8.200159390735626,-6.227398013043404
1646167569858124300,5.034124267578125,5.537601392936706,-8.618045780110359,-7.650392003566027
1646167569868107300,5.044107177734375,5.442597296640277,-8.637523803040384,-8.340877774980664
1646167569878090500,5.054090576171875,5.2900364989101885,-8.459544486415385,-8.315105620342493
1646167569888073200,5.0640732421875,4.413839647574722,-8.047807267320156,-7.421050748494267
1646167569898057200,5.07405712890625,3.428170614129305,-7.041190430653095,-6.401631128877401
1646167569908040200,5.084040283203125,2.319566544280201,-5.947535362002253,-5.590570766580105
1646167569918023400,5.0940234375,-0.3106060182206333,-4.700069203299284,-5.091964826849103
1646167569928006100,5.104006103515625,-3.6128140648186204,-3.6917023080945013,-4.703048219110071
1646167569937989000,5.113989013671875,-7.994978178930282,-2.276614560651779,-2.5981223505064843
1646167569947972400,5.123972412109375,-10.09634138661623,1.0411229173809289,1.8675160194970666
1646167569957955300,5.133955322265625,-8.593381294453144,6.8241036769986145,7.888671182852983
1646167569967938300,5.143938232421875,-8.292913662278652,12.518195608329773,11.747388930487633
1646167569977921300,5.15392138671875,-7.320286773496866,15.242103854626416,13.157894026315212
1646167569987904300,5.163904296875,-3.602661504116654,12.817583044052123,12.329065367615222
1646167569997887500,5.173887451171875,-1.0093684734627604,8.439594169798493,9.014025458103418
1646167570007870200,5.1838701171875,0.7994296918667853,4.2148862242430445,4.8055134450674055
1646167570017853200,5.193853271484375,-0.17255436896681783,1.0480839885652065,2.0456538876846433
1646167570027836400,5.20383642578125,-2.286023609510064,-0.5425988107144832,1.9707970918819306
1646167570037819400,5.2138193359375,-1.0756678688004613,-0.2443950318187475,3.5050001713097094
1646167570047802000,5.223802001953125,-0.9941536609351634,2.3530431358158586,3.5388390202865003
1646167570057785300,5.233785400390625,-1.6731553307831286,5.845270334792136,2.156164472931623
1646167570067768300,5.243768310546875,1.7118448346614836,9.886499197262525,1.5077587246164679
1646167570077751000,5.2537509765625,4.623882620197534,14.180526762759685,-1.0089300820454954
1646167570087734300,5.263734375,1.338502958803624,12.929240753507614,-4.423255418434739
1646167570097717200,5.27371728515625,0.3141065736874938,2.7794062616348265,-9.769266318023204
1646167570107700200,5.2837001953125,0.9569032499492168,-9.123194273352622,-14.285563008248806
1646167570117684500,5.2936845703125,-2.25885795468688,-12.66148647341132,-15.570163258081674
1646167570127667200,5.303667236328125,-1.3256523911893368,-10.914392630714177,-13.99340026308298
1646167570137650200,5.313650146484375,5.166820453608036,-7.097573996654153,-9.874622881507873
1646167570147633400,5.32363330078125,10.991867500060795,-1.9178660044223068,-6.738623195850849
1646167570157616400,5.333616455078125,12.146239780002832,2.028188665881753,-4.24932333137393
1646167570167599000,5.34359912109375,10.026209281247853,3.4728713411211967,-3.2043717956155535
1646167570177582300,5.353582275390625,7.583364878475666,3.2676486282616852,-2.3000218858547505
1646167570187565300,5.3635654296875,5.461619977018237,3.6005309218287467,-1.3139919101424515
1646167570197548300,5.37354833984375,3.818440682303905,4.033124466469884,-0.35841245614290235
1646167570207531300,5.38353125,1.746302400058508,4.048247801321745,0.8027566443324089
1646167570217514200,5.39351416015625,-0.1361154204942286,3.6020004098594187,1.828587153904885
1646167570227497200,5.403497314453125,-1.059701945644617,1.7092004576325415,2.135968657121062
1646167570237480200,5.413480224609375,-1.2849217368721961,-0.5347212092071771,1.5713976685732602
1646167570247463200,5.423463134765625,-0.5890460160475224,-2.017244078019261,1.142034118829295
1646167570257446400,5.4334462890625,0.2947042463421821,-2.4413199696838856,0.5065297184675932
1646167570267429400,5.443429443359375,0.45063364372253417,-1.8375684788703917,-0.15016367346048354
1646167570277412000,5.453412109375,0.6257558173507451,-1.6080372541844843,-0.6452528372421861
1646167570287395300,5.463395263671875,1.589645272925496,-1.8893559492528438,-0.9265729936152696
1646167570297378300,5.47337841796875,2.2834803547680376,-2.1115198600411413,-0.9332701531663536
1646167570307361300,5.483361328125,2.0740613592624664,-2.1852830153882503,-1.0611708491533993
1646167570317344300,5.49334423828125,3.3127965144991873,-2.3154899424910544,-0.7831900663360953
1646167570327327200,5.5033271484375,1.7516273944735525,-2.291357371753454,-1.048116721791029
1646167570337310200,5.513310302734375,0.3501776386957615,-2.4785990222424266,-1.2651739570900797
1646167570347293400,5.52329345703125,-0.3160532507758587,-2.5699416734218596,-0.7242994859501719
1646167570357277200,5.533277099609375,0.22739655074477194,-1.32519880220294,-0.1224719489365816
1646167570367260200,5.54326025390625,0.5786871191184968,-0.15238894829452038,1.461178175227344
1646167570377243400,5.553243408203125,0.6246761323552579,-0.19807225658297536,2.68643776281923
1646167570387226400,5.563226318359375,-0.7892473205484449,-0.42035657888054845,2.668200679861009
1646167570397209000,5.573208984375,-1.7832124731741845,-0.9130442344784736,2.8801763741120694
1646167570407192300,5.5831923828125,-3.121190239059925,-1.506173208990693,3.21340558142066
1646167570417175300,5.59317529296875,-4.576609996891022,-1.2658382662177086,2.89051685860157
1646167570427158300,5.603158203125,-5.207217930448055,0.035519641670584676,2.2607146884694695
1646167570437141200,5.613141357421875,-4.517192177760601,2.4646377169072626,1.662638028421998
1646167570447124200,5.623124267578125,-3.044544221752882,3.789276547139883,1.4267030741736293
1646167570457107200,5.633107177734375,-1.5566811609566211,2.8180729691594837,1.5444360118895768
1646167570467090400,5.64309033203125,-1.3383166424512862,1.6763818916141986,2.5203031977668404
1646167570477073200,5.6530732421875,-2.0143489410996436,1.505490487423539,3.3228631504833697
1646167570487056100,5.66305615234375,-2.67960265610218,2.0832330922335385,3.325839243684709
1646167570497039400,5.673039306640625,-3.25357743281126,2.6893115646898744,3.423401500031352
1646167570507022300,5.683022216796875,-2.6425720253467557,2.995010083255172,4.511307503636181
1646167570517005300,5.69300537109375,-1.3221335694134235,3.0965999876827,6.6787307449460025
1646167570526988300,5.70298828125,-0.6626582916818559,2.6251591182529923,9.371740579631924
1646167570536971300,5.71297119140625,-1.0836965692162512,1.9053917227745054,10.371893188720941
1646167570546954200,5.722954345703125,-2.663286312073469,1.5058067137658595,9.842326878058909
1646167570556937200,5.732937255859375,-4.381155229330062,1.5051169779360294,9.231769798883795
1646167570566920200,5.742920166015625,-5.255706359285116,1.5263497355788944,8.707159649324417
1646167570576903400,5.7529033203125,-5.4338417432546615,1.5115379508942364,8.07626003934443
1646167570586886100,5.76288623046875,-4.53366049748063,0.6808405757129192,7.3709700820297
1646167570596869000,5.772869140625,-3.5358477295160293,-1.183176934143901,6.371599563229084
1646167570606852400,5.782852294921875,-3.403451183414459,-1.8816916982352732,5.290773581013083
1646167570616835300,5.79283544921875,-2.4727543878674507,-0.9069593616068362,4.177761193202436
1646167570626819300,5.8028193359375,-0.696769966250658,0.0658218409538269,3.0188620834857223
1646167570636802300,5.81280224609375,1.1355950987577437,1.0092045150727034,1.759562279126048
1646167570646785300,5.822785400390625,1.6605366722285746,3.056116586124897,-0.6060833678271621
1646167570656768300,5.832768310546875,1.1267851848363877,6.287224997496605,-2.867196773290634
1646167570666751500,5.84275146484375,2.193458138537407,9.6711549033612,-4.76538893994987
1646167570676734200,5.852734130859375,4.70710801589489,13.60615217307806,-6.469487106007337
1646167570686717200,5.86271728515625,6.45633360992372,14.101370808458327,-6.4858221547365185
1646167570696700400,5.872700439453125,6.249305893468857,12.075897246754169,-6.151873108720779
1646167570706683100,5.88268310546875,4.787729951095581,10.502715032851695,-6.2977130737632505
1646167570716666000,5.892666015625,0.8714344592392445,8.92988996182382,-6.4460682364970445
1646167570726649300,5.9026494140625,-4.8482992783486845,6.224101309585571,-5.913093578696251
1646167570736632300,5.91263232421875,-7.509307124096154,3.3305513668984172,-4.187283931568265
1646167570746615300,5.922615234375,-4.949834237718582,1.4517594817578792,-2.288467641661316
1646167570756598300,5.932598388671875,-1.038175027360767,0.5309066193550824,-1.2965864557027815
1646167570766581200,5.942581298828125,1.0807219373196362,-0.36483050649166104,-0.45271220356225966
1646167570776564500,5.952564453125,2.359001751959324,-0.5905646769821643,0.12193068166673182
1646167570786547200,5.962547119140625,4.228179128797352,-0.5947621286720037,0.17356500731408595
1646167570796530200,5.9725302734375,5.155311802121997,-1.106933067896962,-0.47037587054669855
1646167570806513400,5.982513427734375,5.518381728681922,-2.5168045419961214,-0.9345195687055587
1646167570816496400,5.992496337890625,5.6478498201161615,-4.149841212880611,-2.0239929677575828
1646167570826479000,6.00247900390625,4.848593877381086,-4.793266542434692,-3.5465427265316247
1646167570836462600,6.012462646484375,3.4961242064148186,-5.378302226862311,-4.7616547218576075
1646167570846445600,6.022445556640625,2.0473709207355975,-6.09239566835761,-5.313895513403415
1646167570856428500,6.032428466796875,1.679784978055954,-6.702963853448629,-5.597910023427009
1646167570866411800,6.042411865234375,3.10854556928128,-7.065288514599204,-5.631439368063211
1646167570876394500,6.05239453125,4.750906241089106,-7.842059069281816,-6.370352778038382
1646167570886377500,6.06237744140625,5.458825377863645,-7.971451757392287,-7.492962723016738
1646167570896360700,6.072360595703125,5.873049153077602,-7.593991486430168,-8.143842460229992
1646167570906343700,6.08234375,6.588307546699046,-7.205218963336944,-8.092638927215337
1646167570916326400,6.092326416015625,6.402485699880123,-6.910549788308143,-7.568955244851112
1646167570926310700,6.102310546875,5.442448243558407,-6.259565421676635,-6.944577145594358
1646167570936293600,6.112293701171875,4.099349043005705,-5.566317199811339,-6.192064833855628
1646167570946276600,6.122276611328125,2.584517311263084,-4.759123449814319,-5.469299425604939
1646167570956259600,6.132259521484375,0.3795020059227943,-3.858925252905488,-4.37677716037631
1646167570966242600,6.14224267578125,-2.9311037205338475,-2.6092893489480016,-3.268089065505564
1646167570976225500,6.1522255859375,-6.656138973909616,-1.4163292719364164,-0.10491495719701051
1646167570986208800,6.162208740234375,-9.264034238150716,1.2557114244788885,5.644042829048633
1646167570996191500,6.17219140625,-9.08890154312849,8.278468372818827,10.299039549434184
1646167571006174500,6.182174560546875,-9.826687410378456,14.554899004578589,13.192284956216811
1646167571016157700,6.19215771484375,-7.282105219140648,15.406616371434927,13.218840954709052
1646167571026140700,6.202140625,-3.5371894995138047,10.93152730538845,10.83193646582365
1646167571036123400,6.212123291015625,-2.5472245224401355,6.383064960095286,7.433957576340436
1646167571046106600,6.222106689453125,-3.295319894519448,3.8023242447614667,3.51769949388504
1646167571056089600,6.232089599609375,-3.3234473801121114,1.5041951869159935,0.697527214358747
1646167571066072600,6.242072509765625,-2.2384861977875232,-0.8624445125758647,0.28742227264046666
1646167571076055600,6.2520556640625,0.2402384966611862,-2.614662274158001,0.5322954433649778
1646167571086038500,6.26203857421875,1.6975065127074718,-2.294839368650317,-0.00623363369256258
1646167571096021800,6.272021728515625,1.5000561874151228,-0.8667337342023849,-0.8116235491380095
1646167571106004700,6.282004638671875,1.1047858267351984,0.9442898520916699,-2.1840496742010114
1646167571115987500,6.291987548828125,2.7999171347439287,3.9977404338777065,-3.3487159691423174
1646167571125970700,6.301970703125,5.243639489394426,7.953893888869882,-3.4972216462627053
1646167571135953700,6.31195361328125,1.1262348574772476,11.318709928941725,-3.6314021531715985
1646167571145936400,6.321936279296875,-7.5501774791449305,10.184781886613369,-3.3152947610557075
1646167571155919600,6.331919677734375,-4.837242462283372,3.3597102413654327,-5.261769020324945
1646167571165902600,6.341902587890625,3.018079116414487,-4.312853846520185,-9.365284535360336
1646167571175885600,6.351885498046875,4.633236723998189,-8.010610047826171,-11.021315712863206
1646167571185868500,6.36186865234375,3.816915664693713,-8.96928030744791,-9.970817648893593
1646167571195851500,6.3718515625,5.280767735305428,-7.060338198715448,-7.515680750781297
1646167571205834800,6.381834716796875,7.281763858357071,-2.2456594504177567,-4.134514464411139
1646167571215817700,6.391817626953125,8.571712483480573,1.0063555553823709,-2.34072711346969
1646167571225800400,6.401800537109375,8.585551039218903,1.3232277943909168,-2.261017909199744
1646167571235783700,6.41178369140625,7.7211565616190425,1.9260463882684706,-1.891944212180376
1646167571245766700,6.4217666015625,6.5324307611763475,3.0915801136940715,-1.015041696793586
1646167571255749600,6.43174951171875,5.111127207958698,3.869378257858753,0.3594289397090673
1646167571265732600,6.441732666015625,2.906042929035425,3.9390813241600986,1.9399518717631696
1646167571275715600,6.451715576171875,-0.04276829762458801,2.6118676750034093,3.181733262827992
1646167571285698600,6.461698486328125,-2.8160329877644776,0.45797874578833575,3.68271528404057
1646167571295681800,6.471681884765625,-4.225406449213624,-1.2094073539435863,2.781042630665004
1646167571305664500,6.48166455078125,-4.018647612828016,-1.3756009557068347,1.2852096139028668
1646167571315647500,6.4916474609375,-2.9864287173926827,-0.7682634231001139,0.13241780808530748
1646167571325631700,6.5016318359375,-0.5399620324701071,-1.3202537470161915,-0.20364771862775086
1646167571335614700,6.51161474609375,2.4528584317862987,-1.6276543933242558,-0.6154813838347792
1646167571345597400,6.521597412109375,4.407518920120596,-2.022783591967821,-1.2095476391971112
1646167571355580700,6.53158056640625,4.559072002112865,-2.1143284877210853,-1.1915482374522834
1646167571365563600,6.541563720703125,2.640598679447174,-2.051184341543913,-1.1364759732455014
1646167571375546600,6.551546630859375,0.8402583997309208,-2.19360134640038,-0.6364180811405181
1646167571385529600,6.561529541015625,-0.20503038689149541,-2.1638176180332898,0.3544952826991677
1646167571395512600,6.5715126953125,-0.4498971826741472,-1.8189467805087565,0.7942825382366776
1646167571405495600,6.58149560546875,0.04706098984982818,-1.5315180781275033,0.8078761793032289
1646167571415478800,6.591478759765625,0.39762222103569655,-1.5211989286869763,1.140052078166604
1646167571425461500,6.60146142578125,0.5850151530962437,-1.6334136875033378,1.1836898521021009
1646167571435444500,6.611444580078125,0.47580081820487974,-1.314969084611535,1.6626669622555375
1646167571445427700,6.621427734375,-0.4535818990688771,-1.205368307685852,1.8060928518936037
1646167571455410700,6.63141064453125,-1.4797300232231616,-1.1436042176902292,1.6677023260742425
1646167571465393700,6.6413935546875,-2.4656734896957873,-1.3374492119669914,1.786668312716484
1646167571475376600,6.651376708984375,-2.8664567685782907,-0.744185797420144,1.6936358087539671
1646167571485359600,6.661359619140625,-2.858438589556515,0.47963761988878245,1.3905411890767514
1646167571495342600,6.671342529296875,-2.7360429207265375,1.3205261342167853,1.2682690004959702
1646167571505325600,6.68132568359375,-2.5129379296958443,1.6670155128538608,1.44785531392619
1646167571515308500,6.69130859375,-2.188587756022066,1.417339325761795,1.7807744323723018
1646167571525291800,6.701291748046875,-2.027135941958427,0.7706400891035795,2.410251754464209
1646167571535274500,6.7112744140625,-1.8935937329530714,0.6088380002975463,3.3702366038158535
1646167571545257500,6.721257568359375,-2.1085317841410633,1.4342273321986199,3.957629080502689
1646167571555240700,6.73124072265625,-2.4276338280282914,2.4323358682394027,4.354494601419568
1646167571565223700,6.7412236328125,-2.5301515148252247,3.1485072850525375,5.386801759660243
1646167571575206400,6.751206298828125,-2.0496330204486846,3.8375697456657885,6.787013425010442
1646167571585189600,6.761189697265625,-1.6159097411252556,4.29451154962182,7.907368869060278
1646167571595172600,6.771172607421875,-1.8463810231402515,3.9019033938884733,8.32943575899005
1646167571605155600,6.781155517578125,-2.7704677528977393,3.5674013901650903,8.269720418217778
1646167571615138600,6.791138671875,-3.512227199953794,3.3084733906030652,7.816506110352277
1646167571625121500,6.80112158203125,-4.050784626322985,3.733016315257549,7.509364407241344
1646167571635104800,6.811104736328125,-3.9606057582259178,3.986259839442372,7.024892206802964
1646167571645087700,6.821087646484375,-3.8146319376707076,3.3003882838249203,6.332949806839228
1646167571655070500,6.831070556640625,-3.910241014122963,1.5873744053840637,6.213399882829189
1646167571665053700,6.8410537109375,-3.4789141284167764,-0.678183339202404,6.191407831251621
1646167571675036700,6.85103662109375,-3.0939807450950143,-2.0336486848533153,5.323724833500385
1646167571685019400,6.861019287109375,-2.9985037705898283,-1.294661040598154,4.393398624831438
1646167571695002600,6.871002685546875,-1.9232301618039607,0.4864455463379621,2.9446380326285957
1646167571704985600,6.880985595703125,0.2714975582778454,1.788659778794646,1.1724857365205883
1646167571714968600,6.890968505859375,2.0347592764437197,2.831161583313346,-0.7057707265689969
1646167571724951600,6.90095166015625,2.53191384832263,5.215230556511878,-3.0942782667368647
1646167571734934500,6.9109345703125,2.5519313849568364,8.11779558030367,-5.468726594153046
1646167571744917500,6.92091748046875,4.1104537898659705,9.531809561035036,-6.745268040692806
1646167571754900700,6.930900634765625,5.832442417401075,9.089490741193295,-6.545159309846162
1646167571764883500,6.940883544921875,6.064383041316271,8.197081298464536,-5.913161383235455
1646167571774866700,6.95086669921875,5.1407706510722635,7.225003860259056,-5.6930321931451555
1646167571784849700,6.960849609375,2.2143319997400046,5.9204760901629925,-5.370633884191513
1646167571794832600,6.97083251953125,-2.8696617020994424,4.248016340428591,-3.8800153872072696
1646167571804815600,6.980815673828125,-6.709273182725906,2.93337458807528,-1.51382518504858
1646167571814798600,6.990798583984375,-4.978772747433185,2.1462691018611193,-1.026006889052689
1646167571824781600,7.000781494140625,-0.13708368100449442,0.9196370568722486,-1.6408021903194485
1646167571834765000,7.01076513671875,3.584194119533896,-0.1575122826576233,-1.2809706611588596
1646167571844747800,7.020747802734375,4.715717438808083,-1.014408513456583,-0.8891384582340717
1646167571854730800,7.030730712890625,5.441003889968991,-1.1044365749061107,0.415472898492217
1646167571864714000,7.0407138671875,4.593765714353323,-1.0418506471335887,1.1641302883684634
1646167571874697000,7.050697021484375,4.527325449240207,-1.972184454587102,1.487558524891734
1646167571884679700,7.0606796875,4.191513824222982,-2.6022850231438874,0.2839019895598292
1646167571894663000,7.070662841796875,2.6710791579067705,-2.952296730688214,-2.286715683427453
1646167571904646000,7.08064599609375,2.0417349606752393,-3.511595916312933,-3.626542730441689
1646167571914628900,7.09062890625,1.9843527390256523,-4.044900828981399,-4.030669766794145
1646167571924611800,7.10061181640625,2.5069006953582167,-4.743005843228102,-4.261023706039786
1646167571934594800,7.1105947265625,3.3810984818309544,-5.491090986174345,-4.509125483421981
1646167571944578000,7.120578125,4.315624480277299,-6.184575939404964,-5.239428593701124
1646167571954560800,7.130560791015625,4.912508423408866,-6.987736488363146,-6.182881410446763
1646167571964543700,7.140543701171875,5.385138210362196,-7.277074239236116,-7.203233342477679
1646167571974527000,7.15052685546875,5.308188826194406,-7.2253382067799565,-8.001481569474935
1646167571984510000,7.160510009765625,4.905333417212963,-6.937876186650991,-8.168668858450651
1646167571994492700,7.17049267578125,4.398502085450291,-6.506232490080595,-7.677028666079044
1646167572004476000,7.180475830078125,3.7983708309605717,-6.030444531357288,-6.811604260909557
1646167572014459000,7.190458984375,3.4458325275480743,-5.743670493492484,-5.821081649953126
1646167572024441900,7.20044189453125,2.363962004715204,-5.356223081523179,-4.798990180778503
1646167572034424800,7.2104248046875,-0.44640082845836876,-4.210785803186893,-4.048066015014052
1646167572044407800,7.22040771484375,-4.358701697720587,-2.954986115902662,-2.6016601692438126
1646167572054390800,7.230390869140625,-7.335607676747441,-1.192214227080345,1.791317599827051
1646167572064374000,7.2403740234375,-9.314786520266532,4.928006436792016,7.5844123417019835
1646167572074356700,7.250356689453125,-10.623134725433587,13.314596161633728,13.095612049925327
1646167572084340000,7.260340087890625,-9.282702113741635,18.57337476797104,14.796822093325853
1646167572094323000,7.270322998046875,-5.895576626706123,14.856238743412494,13.087742047202587
1646167572104305700,7.2803056640625,-2.6981109572172164,8.226145480385423,9.774695941856503
1646167572114289000,7.290288818359375,-1.7229937129244208,4.277780195051432,5.860675409194827
1646167572124271900,7.30027197265625,-2.4502764524690805,1.138153551068902,3.058377809055149
1646167572134254800,7.3102548828125,-3.2015187442719935,-1.3421674726605415,1.815131898395717
1646167572144237800,7.32023779296875,-2.0411282269537447,-3.3800071794629094,1.721665386930108
1646167572154220800,7.330220703125,-0.8407248481988906,-5.50615177718401,2.989574321942031
1646167572164203800,7.340203857421875,0.3922954365223646,-5.4755298444271086,2.579575178685784
1646167572174187000,7.35018701171875,3.8858103372216224,-3.8817216066032647,-0.9187073748067021
1646167572184169700,7.360169677734375,3.2564532805085182,-0.9069985245734453,-3.759006788821518
1646167572194153000,7.370153076171875,4.610658981487155,3.9886125400483605,-5.000909760439396
1646167572204136000,7.380135986328125,8.180321886843442,10.09223804295063,-4.590322588162124
1646167572214119000,7.390118896484375,3.299372384780645,14.550303493481874,-2.6628151874303816
1646167572224102000,7.400101806640625,-7.6973396327018735,12.729888393986224,-0.8000506002441048
1646167572234084900,7.4100849609375,-4.02840474447161,2.845352021229267,-6.285665493094921
1646167572244067800,7.42006787109375,-0.29791151795089243,-6.254646085453033,-12.155403914189337
1646167572254051000,7.430051025390625,-2.733262934619188,-8.670497267359494,-14.301142854696511
1646167572264033800,7.44003369140625,-0.14925883357524872,-7.539462608385086,-12.921176689517496
1646167572274016800,7.450016845703125,8.18347830504775,-4.128895455485582,-8.477351361262798
1646167572284000000,7.46,11.825561718970537,0.5269973369568586,-5.083911868774891
1646167572293982700,7.469982666015625,10.255697251313924,2.182474972230196,-3.6201384163573382
1646167572303965700,7.479965576171875,9.279462693428993,2.1356278808593747,-2.6016435103699562
1646167572313949000,7.489948974609375,7.524864758712053,3.907980667975545,-1.4203439144052565
1646167572323932000,7.499931884765625,5.163550053635239,4.888595048379898,0.1547276203751564
1646167572333915000,7.509914794921875,2.82945711748302,4.57437420066297,1.603421138691157
1646167572343897900,7.51989794921875,1.003164065864682,3.427701827573776,2.638144564293325
1646167572353880800,7.529880859375,-0.4229770635772496,0.9824486100941896,2.893996517410874
1646167572363864000,7.539864013671875,-1.7968243805497883,-1.1008090320587158,2.034010065511614
1646167572373846800,7.5498466796875,-2.043577958193421,-2.007787098366022,1.167626021529734
1646167572383829800,7.559829833984375,-1.0531616571556777,-2.1690730543434618,0.38928215311579406
1646167572393813000,7.56981298828125,-0.19159104133751242,-1.7909084345042705,-0.04582658921666443
1646167572403796000,7.5797958984375,1.2232897488236427,-1.4508119717746972,-0.205820423024334
1646167572413778700,7.58977880859375,3.141078011834621,-1.694697300505638,-1.0073895746052264
1646167572423762000,7.599761962890625,3.3529578444957733,-2.0959382600277663,-2.1541575170233846
1646167572433745000,7.609744873046875,1.9511399129927158,-1.566205945149064,-1.87732444293648
1646167572443728000,7.619727783203125,0.7631318323653191,-1.2280448343962431,-1.2468988802090286
1646167572453710800,7.6297109375,-0.9057143299818038,-2.076243963998556,-0.3585775835767388
1646167572463693800,7.63969384765625,-0.737342726592347,-2.3187796316862106,0.4462310248494148
1646167572473676800,7.6496767578125,-0.07288045422844588,-1.966839001905918,1.0515709538981317
1646167572483659800,7.65965966796875,1.351204181075096,-1.4570254394620656,1.6255048140749335
1646167572493642800,7.669642822265625,1.0845849694233387,-0.853786574345827,1.5323127356365323
1646167572503626000,7.6796259765625,-0.3395898283816874,-0.4457797739505768,1.029213722269982
1646167572513609000,7.68960888671875,-1.79449038464427,-0.5588502728134394,1.0315458915445952
1646167572523591700,7.699591796875,-2.9201991724207996,-0.8760095120698214,1.6994195067219435
1646167572533575000,7.709574951171875,-3.4674539922475813,-0.8602490483582019,2.5131448504447937
1646167572543558000,7.719557861328125,-3.8792975943267343,-0.4855167410552501,2.5601225824579594
1646167572553540900,7.729540771484375,-3.9065117644667624,0.6110603525221348,2.130171076758206
1646167572563523800,7.73952392578125,-3.3691303961396217,2.5605109972536564,1.8905156406819819
1646167572573506800,7.7495068359375,-2.0270754439428447,3.1117806056797503,2.4211297068312763
1646167572583489800,7.75948974609375,-1.231204175209999,1.7139245635449885,3.3343446217015384
1646167572593473000,7.76947314453125,-1.9939491271495817,1.0564683705508708,3.8757574375018473
1646167572603455700,7.779455810546875,-2.8890298349142074,1.6180635581582783,3.6630905461162326
1646167572613438700,7.789438720703125,-3.6288568526029583,2.611319977992773,3.2194863626390693
1646167572623422000,7.799421875,-3.9119793822228908,3.050979807758331,3.3418513440698385
1646167572633405000,7.809405029296875,-3.221010211205482,2.863131423547864,4.39956766885519
1646167572643388000,7.819387939453125,-1.5577321313142776,2.546083827972412,6.4213932294458145
1646167572653371000,7.829370849609375,-0.4960274675451219,2.287824521452188,8.50218886539936
1646167572663353900,7.839353759765625,-1.7989853579759596,1.9970880096971988,9.605554596203564
1646167572673336800,7.8493369140625,-3.7467034798264502,2.093440597993135,9.996307479459047
1646167572683319800,7.85931982421875,-4.696127187675238,2.7793150762200356,10.165207417571544
1646167572693302800,7.869302734375,-4.177485591131449,3.163542357099056,10.366716662865876
1646167572703286000,7.8792861328125,-3.3179414761722086,2.559206344395876,10.232139850115775
1646167572713268700,7.889268798828125,-2.6974060238182545,0.5955424653947353,9.662605686202644
1646167572723251700,7.899251708984375,-2.3362919075012205,-1.7394740153431891,8.41694102396369
1646167572733235000,7.90923486328125,-2.7300772903203963,-1.9923194801211357,7.3135852300316095
1646167572743218000,7.919218017578125,-2.72813083242774,0.210357737660408,5.950088553616404
1646167572753201000,7.929200927734375,-0.8699474355518817,1.840457186049223,3.043299190127849
1646167572763183900,7.939183837890625,1.1924936285436152,3.4425708954036236,0.26267799974530937
1646167572773166800,7.949166748046875,2.4659154817581177,5.9747559618830675,-2.865788367797434
1646167572783150000,7.959150146484375,2.4612311233341693,9.624731590360403,-5.412649317622185
1646167572793132800,7.9691328125,3.453216792580485,12.460374703001975,-7.270248192608356
1646167572803115800,7.97911572265625,5.3944204179704185,13.491312326455116,-8.380130757960677
1646167572813099000,7.98909912109375,6.283336757886409,12.69041446173191,-9.126646459633111
1646167572823082000,7.99908203125,4.767898292422294,9.28066447043419,-8.700545199620723
1646167572833065200,8.009065185546875,2.729296369075775,5.904181957966089,-7.96769678877294
1646167572843048400,8.01904833984375,0.05821604212522506,3.6383114941686387,-6.867319133868813
1646167572853031400,8.029031494140625,-2.156381330552697,2.3994050740182398,-4.787885141657292
1646167572863014400,8.039014404296875,-4.041664915800094,2.1350877826333043,-2.3384045157410203
1646167572872997400,8.048997314453125,-3.851639772072434,2.3201409831672906,-0.2088786050185561
1646167572882980400,8.05898046875,-1.7655553820610046,2.3731536114305256,0.4098790240079164
1646167572892963300,8.06896337890625,0.7856079411327839,2.1548551438987253,1.0595262968167662
1646167572902946600,8.078946533203125,3.473437742832303,1.4269021038770675,2.0507707923069596
1646167572912929300,8.08892919921875,4.9831613377809525,0.5532587364166974,2.916803977024555
1646167572922912300,8.098912353515624,5.546548084980249,-0.5784323406398296,2.173485025566816
1646167572932895500,8.1088955078125,5.4212336060941215,-1.8514777617573737,-0.6468047428593039
1646167572942878200,8.118878173828126,3.965547014020383,-2.745503407511115,-3.5074186306282877
1646167572952861200,8.128861083984376,2.1992527962908146,-3.8794653521090745,-4.968458858689665
1646167572962844400,8.138844482421876,1.9510816069342194,-5.287335423257947,-6.199143393939734
1646167572972827400,8.148827392578125,2.008171713769436,-5.695338716521859,-5.981341185492277
1646167572982810400,8.158810302734375,2.1329767818287015,-6.178294082656502,-6.513927136236429
1646167572992793300,8.16879345703125,3.7319621300294994,-6.698935913106799,-7.152138530534505
1646167573002776300,8.1787763671875,4.417249748279154,-7.492905439871549,-7.855826897871494
1646167573012759600,8.188759521484375,5.214132824403047,-7.758270779004692,-8.251057218801975
1646167573022742300,8.1987421875,6.024101884332299,-8.109056978052854,-8.245051840907335
1646167573032725200,8.208725341796875,5.873623153573274,-8.398595219933986,-8.069636821812392
1646167573042709200,8.218709228515625,5.448077189356089,-8.343345041877031,-7.610844421553612
1646167573052691500,8.22869140625,4.850176178136468,-8.047235020390152,-6.810776577913761
1646167573062675200,8.23867529296875,4.377398214884102,-7.566918186065554,-5.879752450108528
1646167573072657400,8.248657470703124,3.8952258158206936,-6.867040316927433,-4.991769591650367
1646167573082640400,8.258640380859376,2.620790401649475,-5.663285289657115,-4.3689884061962365
1646167573092623400,8.268623291015626,1.1837389519408346,-4.773848140737414,-3.2296710720449684
1646167573102606300,8.2786064453125,-1.0119397852554917,-3.831938461780548,-2.3852654895067213
1646167573112590300,8.28859033203125,-4.773462356290221,-2.303946219691634,-1.3323903211422263
1646167573122572500,8.298572509765625,-9.486537171635032,1.8883412192523479,1.5760595229044556
1646167573132556500,8.308556640625,-10.026296959531306,8.739277373597025,8.665911108613013
1646167573142538200,8.318538330078125,-9.722256145045161,18.37635581983328,15.81068349429369
1646167573152521500,8.328521484375,-8.816776208341121,24.588619392108917,17.305116581130026
1646167573162504400,8.33850439453125,-5.4835155824840065,17.87729336850643,14.17434369021058
1646167573172487200,8.348487060546875,-2.9404233375430104,7.166162964233756,9.306406814455986
1646167573182471200,8.35847119140625,-3.2705940340638158,1.2747802820861338,4.8765626652807
1646167573192453400,8.368453369140624,-3.2959158145859835,-2.24050630543828,2.2317931298896667
1646167573202437400,8.378437255859374,-1.3568909945398568,-3.760256204360723,1.099820313282311
1646167573212419300,8.38841943359375,1.7179545497134328,-2.3491449593335387,-0.7860977704763412
1646167573222403300,8.3984033203125,-0.030134441500902175,-0.7234621583431958,-2.0261711885794997
1646167573232386300,8.40838623046875,-0.8974310702830552,-0.019753332740068436,-2.7752272223845122
1646167573242368500,8.418368408203126,4.399534935629368,1.809773878493905,-2.6724258963406085
1646167573252352300,8.428352294921876,8.192021676987409,8.109486017119885,-4.236784167796373
1646167573262334500,8.43833447265625,3.145032886940241,12.23059914816618,-4.657876659736037
1646167573272318500,8.448318359375,-2.4156664729893205,9.133259740293026,-4.971768421629071
1646167573282301400,8.458301513671875,-0.5731979471176862,-0.1033750342786312,-9.237372441196442
1646167573292283400,8.468283447265625,0.25854776807278396,-5.984551964232325,-12.252528071379661
1646167573302267400,8.478267333984375,-0.16855024789199233,-6.946972516298294,-12.345306892842054
1646167573312250400,8.48825048828125,4.518998934921622,-5.823368299585581,-10.422913766384124
1646167573322233300,8.4982333984375,9.914527021872997,-2.449246671029925,-6.336182212889194
1646167573332215300,8.50821533203125,10.449481455314158,1.0109802925735711,-3.3363661906570194
1646167573342199300,8.51819921875,9.284870689952372,1.8077806588500738,-2.531529232919216
1646167573352181500,8.528181396484374,7.4033829898566,2.8546558561474082,-1.5918427829697728
1646167573362165500,8.53816552734375,5.564033472788333,3.8147809907525776,-0.10888619891554116
1646167573372147200,8.548147216796876,3.5432127053260802,3.849776900810003,0.8724769540295004
1646167573382131500,8.55813134765625,1.164597978945449,3.003485650655627,2.318986260174215
1646167573392113400,8.568113525390626,-1.1252231962166725,0.5230401237636805,3.592394961646199
1646167573402096400,8.578096435546875,-2.6400866382718085,-2.128663887065649,3.7201150403693317
1646167573412079400,8.588079345703125,-2.395803250133991,-3.0301392643034455,2.8102055967852473
1646167573422062300,8.598062255859375,-1.0128180293947457,-2.9047476285278795,1.6753192308187483
1646167573432045600,8.608045654296875,0.4224340062091127,-2.382346971711516,0.7128884496197104
1646167573442028300,8.6180283203125,1.5502145952910185,-1.9899469057708978,0.06866550341453403
1646167573452011300,8.62801123046875,1.9727152004629371,-2.071053409618139,-0.4975830264240503
1646167573461994500,8.637994384765625,1.8254408187031745,-1.790258446162939,-0.9924708224147558
1646167573471977500,8.6479775390625,2.2659143029391764,-1.386318749076128,-1.3651774691089986
1646167573481960200,8.657960205078124,2.2979215525746346,-1.4737123703688382,-1.8442238451063633
1646167573491943400,8.667943359375,0.7426923439919948,-1.6797195116043089,-1.583932740497589
1646167573501926400,8.677926513671874,-0.4440180980402976,-1.2921663011729716,-1.0673673657059668
1646167573511909000,8.6879091796875,-0.4004863417625427,-1.025999582529068,-0.5990925590917467
1646167573521892400,8.697892333984376,-0.2101275091011077,-1.08923783673048,-0.0713569344555959
1646167573531875300,8.707875244140626,-0.3622189357537776,-1.0096773932814598,0.6825354699973016
1646167573541858600,8.717858642578125,-0.5855320165771991,-0.869083512198925,1.7014494051143525
1646167573551841300,8.72784130859375,-1.4357894669488072,-0.6932084743767977,2.348263938715309
1646167573561824300,8.73782421875,-2.3353626638270915,-0.6534662465751171,2.5205042732968925
1646167573571807500,8.747807373046875,-2.8260604607820508,-0.675376465088129,2.4436988276444374
1646167573581790500,8.75779052734375,-2.9758044475257397,-0.21792963421940803,2.0348894786946476
1646167573591773200,8.767773193359375,-2.7162346429288386,0.2128454628229141,1.2522947479031978
1646167573601756400,8.77775634765625,-2.531090841501951,1.0223936669915914,0.6202275554485619
1646167573611739400,8.787739501953125,-1.8646844493329524,1.774127980095148,0.33611908353120085
1646167573621722400,8.797722412109374,-1.416159614457935,1.813141893622279,0.44626098159626126
1646167573631705300,8.807705322265624,-2.207734501171112,1.6968991944640874,1.0227689300447702
1646167573641688300,8.817688232421874,-2.9437340695261955,1.8994091412335634,2.080739229591191
1646167573651671300,8.82767138671875,-2.7767934487879273,2.71233412835896,3.11635098233521
1646167573661654500,8.837654541015626,-2.1649267483189703,3.197718767467141,3.618822073061764
1646167573671637200,8.84763720703125,-2.3022191036380826,2.7335283075571057,4.422625888359547
1646167573681620500,8.857620361328125,-1.9269186410583554,2.3804122042566536,5.759114146339893
1646167573691603500,8.867603515625,-1.2312452378727494,2.263466325265169,7.357852826303243
1646167573701586200,8.877586181640625,-1.6680245437659322,1.9269237556248902,8.417501580455898
1646167573711569400,8.8875693359375,-2.2535740229345858,2.076473096579313,8.951192862093448
1646167573721552400,8.897552490234375,-2.6998411420106887,2.6641806305646893,9.035251786005496
1646167573731535400,8.907535400390625,-2.435978754786402,3.6843595441162584,8.912454258376359
1646167573741518300,8.917518310546875,-1.7381952275790273,3.551984040802717,8.568095462027191
1646167573751501300,8.927501220703125,-1.7415012833870946,2.929508560296893,7.711326657000184
1646167573761484300,8.937484375,-2.2124153524637222,1.7089853535771369,6.768769327789545
1646167573771467500,8.947467529296874,-2.5538264049232007,0.44190205573439595,6.060633333393931
1646167573781450200,8.9574501953125,-4.2825802888095374,0.16316519385278225,4.888036245453358
1646167573791433200,8.96743310546875,-5.218894339716434,0.9957973364889621,4.090694611907005
1646167573801416400,8.97741650390625,-3.603479250240326,2.0053163243383167,3.065273706048727
1646167573811399400,8.9873994140625,-1.50545132445693,2.8487212054014206,1.445856979715824
1646167573821382400,8.99738232421875,0.3795663033306598,3.8415684599131343,-0.523496050837636
1646167573831365400,9.007365478515625,2.1538474281609057,5.744996189138293,-2.327950195613503
1646167573841348000,9.01734814453125,3.29414208291173,8.097002383121847,-4.046213372884691
1646167573851331000,9.0273310546875,3.7910283592432736,8.65806565580964,-5.436708823123574
1646167573861314000,9.03731396484375,4.459462457847595,7.613404627430438,-6.190038880985975
1646167573871297000,9.047297119140625,4.326502432644367,6.312095819380879,-6.654734952330589
1646167573881280300,9.0572802734375,2.8806933837234974,5.25510137912929,-6.248142110386491
1646167573891263000,9.067262939453125,1.1465811876744032,4.353908910486102,-5.089030526962876
1646167573901246000,9.077245849609374,-1.18705757496953,3.7847184454441067,-3.619050036598742
1646167573911229200,9.087229248046874,-3.1144507016718386,3.021491847467422,-1.822377339479327
1646167573921212200,9.097212158203124,-2.944046204215288,2.1546482231497763,-1.0821024318926036
1646167573931195100,9.107195068359376,-0.5677285757958889,1.4478811790198087,-1.2300298707336186
1646167573941178000,9.11717822265625,2.495254973489046,1.140087734001875,-1.7304437366694212
1646167573951161000,9.1271611328125,3.897850903627276,0.65036477342844,-1.28693804513067
1646167573961144300,9.137144287109376,4.590672424513102,0.03461830891668796,-0.7318579385057091
1646167573971127000,9.147126953125,4.056192622846365,-0.25803543463647366,-0.5084964884959161
1646167573981110000,9.157110107421875,3.477279805213213,-0.914347133770585,-0.031089842529594895
1646167573991093200,9.16709326171875,3.6594559890061613,-1.8308377093106507,-0.3243333686694503
1646167574001076200,9.177076171875,3.9333354739844797,-2.0726246044576166,-1.8123618491604923
1646167574011059000,9.187058837890625,3.0309990960031747,-2.54398013369143,-3.4947178467482325
1646167574021042200,9.197042236328125,1.7548840581819414,-3.3250305576503276,-4.172346474677324
1646167574031025200,9.207025146484375,1.9429723886281252,-4.556024889501929,-4.4665144221857185
1646167574041007900,9.2170078125,3.0721780786097046,-5.50596414565742,-4.775304477025569
1646167574050991000,9.2269912109375,4.481214270928501,-6.713093617796898,-5.245723309931159
1646167574060974000,9.23697412109375,5.489520960378647,-7.677233248740434,-6.293272460967302
1646167574070957000,9.24695703125,5.785366193449497,-8.176482747071981,-7.580492537909746
1646167574080940000,9.25693994140625,5.808371805983781,-8.821282872110604,-8.167105846917629
1646167574090923000,9.266923095703126,5.267553448945284,-8.815250021687149,-8.263444991210102
1646167574100906200,9.27690625,4.609811717008054,-8.200650973644851,-7.652222726124525
1646167574110889200,9.28688916015625,3.969107629111409,-7.396946234807372,-6.444699870753288
1646167574120872000,9.296871826171875,3.2547833014696836,-6.652334905451536,-5.031590145385265
1646167574130855200,9.306855224609375,1.555884019229561,-5.950782965621352,-4.038275273361802
1646167574140838100,9.316838134765625,-1.5855482128702103,-4.741238833555579,-3.810695767265558
1646167574150821000,9.326821044921875,-6.086905838769674,-3.4775510233700273,-2.5880492847815155
1646167574160804000,9.33680419921875,-10.837291855376959,-0.30546938598454,0.5715267990350723
1646167574170787000,9.346787109375,-11.343748508608341,5.847756306388974,7.779191401958465
1646167574180770000,9.35677001953125,-10.459559781736134,13.306912036871909,14.74764626674652
1646167574190753300,9.366753173828124,-8.306894256836175,18.932526059782504,16.817834583967922
1646167574200736000,9.376736083984374,-5.019482358962297,16.504362508791683,13.681155683875083
1646167574210719200,9.38671923828125,-2.8449948783546684,8.694649711841345,9.003291298121214
1646167574220702200,9.3967021484375,-1.0501005890846251,3.615622107976675,3.9625069156721233
1646167574230685000,9.406684814453126,-0.27798092894777654,-0.07964870625436306,0.9032035162046551
1646167574240668200,9.416668212890626,-1.1312401184186338,-3.0828017639547585,0.9836804899767041
1646167574250651100,9.426651123046875,-0.5145508200988174,-3.8106665411710736,3.068098992602527
1646167574260634000,9.436634033203125,4.286175682953,-2.41020353140831,1.9104753096491098
1646167574270617000,9.4466171875,4.654057978230714,0.5970481937825679,-0.037437750251591205
1646167574280600000,9.45660009765625,7.841646396827698,4.391674285256863,-1.8203636615693568
1646167574290583000,9.4665830078125,10.984355224734545,8.236478658351302,-3.855745161564648
1646167574300566300,9.476566162109375,1.0704454579770564,13.400322141975163,-6.204480078792572
1646167574310549000,9.486549072265625,-13.538061218148469,13.64910284153223,-6.9895280479550355
1646167574320532000,9.496531982421875,-5.7273675934672355,2.57109668867588,-11.780541843026876
1646167574330515200,9.50651513671875,-0.18433745348006486,-6.6563108233451835,-13.70626323712468
1646167574340498200,9.516498291015624,1.0884183370411395,-8.641679169154166,-13.729614886617659
1646167574350481200,9.526481201171874,5.067970787799358,-6.929080885776877,-11.32730006263256
1646167574360464100,9.536464111328126,9.583703998923301,-4.285999157342315,-6.862607302916049
1646167574370447000,9.546447021484376,10.333189656317234,-1.211457272210717,-4.218846360045672
1646167574380430300,9.556430419921876,9.040258800512552,0.3936351606935262,-3.2296079436808824
1646167574390413000,9.5664130859375,7.397894913834333,1.9582886157035826,-2.0904867166236043
1646167574400396000,9.57639599609375,5.832030913990736,3.9857892993211745,-0.10898030693978071
1646167574410379300,9.586379150390625,4.627431837111711,5.277006921467184,1.3625646562620997
1646167574420362000,9.596362060546875,3.2172587497174736,5.439598699346185,2.279096002203971
1646167574430345000,9.606344970703125,1.2464613655745982,4.296424689766765,3.151047032663226
1646167574440328200,9.616328125,-1.3605530241787434,1.6691794128894806,3.2757045089453456
1646167574450311200,9.626311279296875,-3.9388878474146125,-0.7631570398718118,2.346227902843058
1646167574460294000,9.6362939453125,-4.788513210427761,-1.4494681559503078,1.0393703015599398
1646167574470277000,9.646277099609375,-2.644325006493926,-1.16316699629426,0.29795418804883955
1646167574480260000,9.656260009765624,0.366166175542213,-0.833683697515726,0.03967376567535102
1646167574490243000,9.6662431640625,3.0623218705058095,-1.2226730782300232,-0.16127572684437036
1646167574500226000,9.67622607421875,4.681302543509006,-2.1462965743899343,-0.2073076659074053
1646167574510209000,9.686208984375,3.184221572512388,-2.6092005016207693,-0.6698325672253966
1646167574520192300,9.696192138671876,1.402622233623266,-2.900537901878357,-0.8448211776018142
1646167574530175200,9.70617529296875,0.27156879688315094,-3.27332784294188,-0.888982975411415
1646167574540158000,9.716157958984375,-0.8859855471611022,-2.6108313176929947,-0.7093751808017492
1646167574550141200,9.72614111328125,-0.9770260005235671,-2.2380337778449055,-0.0055383449047803875
1646167574560124200,9.736124267578125,-0.28934184252619743,-2.229513786780834,0.7340621705517172
1646167574570107100,9.746107177734375,0.7212789690852165,-1.9084937804430722,1.4364607903391122
1646167574580090000,9.756090087890625,0.5895991929508745,-2.0765619439065457,1.5612909928396344
1646167574590073000,9.766072998046875,-1.2196586988449096,-2.233445281010866,1.9712831218332052
1646167574600056000,9.77605615234375,-2.696640300142765,-2.011962922745943,2.159587433117628
1646167574610039000,9.7860390625,-2.761040583860874,-1.1762485961854456,2.1076552935674786
1646167574620021000,9.79602099609375,-2.404168781288713,0.0030231472134590147,1.9542624289274215
1646167574630004200,9.806004150390624,-2.0948549948357043,0.9971849914550781,1.7370665158100425
1646167574639987000,9.815987060546876,-1.601758612306416,1.7531547501713036,1.9216957918435333
1646167574649970200,9.82597021484375,-1.3680081624902785,1.4598989490717649,2.0327244096152484
1646167574659953200,9.835953125,-1.3095814002238213,0.8490992933124303,1.9585377681590617
1646167574669936000,9.84593603515625,-0.937853681564331,1.1186556543946264,1.409575121501088
1646167574679919000,9.855919189453125,-1.2794786690354347,2.1083266169577835,0.7725780714288354
1646167574689902000,9.865902099609375,-1.9172960955798626,2.7902701854765413,0.6181406661719083
1646167574699885000,9.875885009765625,-2.034668967811763,2.752075187116861,1.1009184837825596
1646167574709868300,9.885868408203125,-1.023447852219641,2.748700157725811,2.9920503566667436
1646167574719851000,9.89585107421875,0.07647431400194764,2.836388962572813,5.771953169646859
1646167574729834000,9.905833984375,-0.45889717580750583,2.4371236870378254,7.687071921187639
1646167574739817200,9.915817138671875,-2.550630823752284,1.7967630057513713,8.044136469852925
1646167574749800200,9.92580029296875,-4.298104021155834,1.6722142505407331,7.751112139421701
1646167574759783000,9.935782958984374,-4.85548655950427,1.8821710061848163,7.279325817555189
1646167574769766100,9.94576611328125,-4.927407301855087,2.5846803928703066,7.478951148799061
1646167574779749000,9.9557490234375,-4.365431590497494,3.2741701389849185,7.662147907811403
1646167574789732000,9.965732177734376,-3.38979792111516,2.712283274954557,7.525326531004906
1646167574799715000,9.975715087890626,-2.896096996821463,1.105696804100275,7.802096476727724
1646167574809698000,9.985697998046875,-2.3805986667394636,-0.15009236178994179,8.056365836828947
1646167574819681300,9.995681396484375,-2.4708733964264393,0.08584872993826866,7.595774278193712
1646167574829664000,10.0056640625,-2.1594857263088225,1.2905810778081417,7.297098790132999
1646167574839647200,10.015647216796875,-0.8502315122127533,1.6971949625402687,6.38281536924839
1646167574849630500,10.02563037109375,0.004554558031819761,2.2634026123791933,4.461729818257689
1646167574859613400,10.035613525390625,0.7138496958673,3.9387873096495865,1.7088216874480247
1646167574869596200,10.04559619140625,0.9230699539303779,5.997316753259301,-1.9744488923877477
1646167574879579400,10.055579345703125,1.2499053685486317,8.796648781591653,-5.186667894372344
1646167574889562400,10.065562255859374,2.6549229728758332,10.88721353188753,-6.5844871116280554
1646167574899545300,10.07554541015625,5.062368145486712,10.545104560291767,-6.963387644526362
1646167574909528300,10.0855283203125,5.825011975139379,9.253784646815062,-7.2143702380418775
1646167574919511300,10.09551123046875,4.9026527998268605,8.914368567565083,-7.868055095803737
1646167574929494300,10.105494384765626,1.7208124233625828,8.043774066281317,-7.4019292839169495
1646167574939477500,10.1154775390625,-1.6495862391471863,5.7705812967717645,-5.794381859076022
1646167574949460200,10.125460205078125,-4.261825085550546,3.253620102909207,-3.2437063193991778
1646167574959443500,10.135443359375,-3.609305179914832,1.7817840478062628,-1.7356556260988116
1646167574969426400,10.145426513671875,0.045361382857710124,0.8554226511150598,-1.4713595236323773
1646167574979409400,10.155409423828125,3.556032439410686,0.49507893464863295,-1.2953347020760178
1646167574989392400,10.165392333984375,5.725388402348757,-0.6127525433927774,0.29908363047018643
1646167574999375400,10.175375244140625,6.267635330885648,-0.4657727606654167,0.9368135248616337
1646167575009358300,10.1853583984375,7.446683202400803,-1.6114859333336353,1.208534224370867
1646167575019341600,10.195341552734375,6.408419766104221,-2.5820383539289233,1.1317813856884837
1646167575029324300,10.20532421875,4.254616761606932,-2.4069220255196093,-0.32330636370927096
1646167575039307300,10.215307373046874,3.067984718573093,-2.4780448954910037,-2.0280811138540504
1646167575049290500,10.22529052734375,0.49140579909384247,-3.4657436811983584,-2.754095587028563
1646167575059273200,10.235273193359374,-0.06649740212783217,-4.9150382341474295,-3.3078502902686595
1646167575069256200,10.245256103515626,1.6658593285560608,-5.796172249624132,-3.5482360864460465
1646167575079239400,10.255239501953126,4.9263119078338145,-6.38904403450489,-4.421885006864368
1646167575089222400,10.265222412109376,6.0297793454468245,-7.616413746118545,-5.940791148439049
1646167575099205400,10.275205322265625,5.850017821580171,-8.442127487668394,-7.470543970459699
1646167575109188400,10.285188232421875,6.058869830852746,-8.910560407453774,-8.670719385677575
1646167575119171300,10.29517138671875,5.738299321848154,-8.830364004188775,-9.418246894741058
1646167575129154600,10.305154541015625,4.988287594753504,-8.565086927860975,-9.4265248937428
1646167575139137300,10.31513720703125,4.192753595151007,-8.05052003341019,-8.539500066661834
1646167575149120300,10.325120361328125,3.4548879406630992,-7.020942592394351,-7.255369772428273
1646167575159103500,10.335103515625,2.4735788559928533,-5.792835798677801,-6.256300282400846
1646167575169086500,10.34508642578125,0.2197150563314557,-4.620573641780019,-5.1196115431874984
1646167575179069200,10.355069091796874,-3.0244892757177353,-3.3947242716014383,-3.4203567255079745
1646167575189052400,10.365052490234374,-7.970517106890678,-2.3860656999737024,-1.141180205413699
1646167575199035400,10.375035400390624,-10.1621947917521,0.3632289165139198,3.4799954939126967
1646167575209018400,10.385018310546876,-7.777468231427669,6.193401635417342,9.145904702332615
1646167575219000300,10.395000244140626,-8.589552676075696,13.799901305764912,13.370886788654326
1646167575228984300,10.404984375,-5.170860668909549,18.977054937338828,15.950485932737587
1646167575238966500,10.414966552734375,-0.5283551813066005,17.547923466974495,14.380962825864552
1646167575248949200,10.42494921875,-1.1937673017412422,9.912054494279623,9.766361244231462
1646167575258932500,10.434932373046875,-2.637296130770445,4.027239500084519,5.58192685687542
1646167575268915500,10.44491552734375,-2.7435914364099503,0.7217617841660976,3.891497442947328
1646167575278898200,10.454898193359375,-0.9390998822331428,-1.8807716607809066,3.9987282758712768
1646167575288881400,10.46488134765625,2.210434992301464,-2.0370722295612094,3.31307065526545
1646167575298864400,10.474864501953125,3.9610102473735807,-1.9151222586721182,0.21712387079447507
1646167575308847400,10.484847412109374,2.282629290896654,0.24969255370497703,-2.751224707767367
1646167575318830300,10.494830322265624,5.126802915996313,2.861984007078409,-4.385424869473279
1646167575328813300,10.504813232421874,7.97470929788351,6.513094192543625,-5.578650027161836
1646167575338796300,10.51479638671875,2.275311661359668,11.630801363414525,-7.714754877883196
1646167575348779500,10.524779541015626,-6.079891576093435,11.550434279757738,-7.3688710639238355
1646167575358762200,10.53476220703125,-2.539002929800749,2.582360425490141,-9.524236495432257
1646167575368745200,10.5447451171875,0.26761516388654705,-5.995573124462366,-12.133590726310015
1646167575378728400,10.554728515625,-1.2194224058710037,-7.694134699180721,-12.945158453607558
1646167575388711400,10.56471142578125,1.6665180847257375,-7.817365357530116,-11.020091724026203
1646167575398694400,10.5746943359375,8.329775950729847,-5.587248344159126,-6.65253364289403
1646167575408677400,10.584677490234375,10.855123280143737,-1.8222335470944642,-4.394617937493324
1646167575418660400,10.594660400390625,9.168284876444936,0.2682031929075718,-3.8977819300442933
1646167575428643600,10.6046435546875,6.591592559719086,1.492235869053006,-3.2591561097264288
1646167575438626300,10.614626220703125,4.799204700312018,2.6492683081150052,-2.0037902838148174
1646167575448609300,10.624609375,3.6471114712178707,3.6760131560534237,-0.33390944465771316
1646167575458592500,10.634592529296874,2.4057249246895314,4.461078076350689,1.0563858068339527
1646167575468575200,10.6445751953125,0.7258183660805225,4.539530266296863,1.9538003643736241
1646167575478558200,10.65455810546875,-1.2478659716755152,4.032449343687295,3.0698396987900134
1646167575488541400,10.66454150390625,-2.265454284211993,1.8747054926097393,3.90263638433814
1646167575498524400,10.6745244140625,-2.821973483729362,-0.6453139197796582,3.590314063718915
1646167575508507100,10.684507080078125,-2.5369886673688886,-2.2158009032487866,2.3756767001673578
1646167575518490400,10.694490478515625,-0.7754863600909709,-2.6046809783697125,0.8752426924157887
1646167575528473300,10.704473388671875,2.160361340099573,-2.360496958953142,-0.13366817347258328
1646167575538456300,10.714456298828125,4.28460974881053,-2.428248306664824,-0.708029026889801
1646167575548439300,10.724439208984375,3.753197518020868,-2.9043302798986432,-1.100109359356761
1646167575558422300,10.73442236328125,2.2583774776935575,-2.962000963100791,-1.5338728245601057
1646167575568405500,10.744405517578125,2.5879963855504986,-2.3913965396076438,-2.28365308098644
1646167575578388500,10.754388427734375,0.915197613120079,-2.1342910792976615,-2.3867057514429093
1646167575588371200,10.76437109375,-0.28822080260701477,-2.1257950536310672,-2.2095450577244162
1646167575598354400,10.7743544921875,0.23433599461913107,-1.1180968514680862,-1.123201773391664
1646167575608337400,10.78433740234375,0.9773930072050541,-1.1155839918643236,-0.08173628965076059
1646167575618320400,10.7943203125,1.085938795185089,-0.9159598296642303,0.6066477967768907
1646167575628303400,10.804303466796876,-0.29571196208000183,-0.39668227330446243,1.1447858286902308
1646167575638286300,10.814286376953126,-1.757928540444374,-0.26738661582767964,1.9000749116659164
1646167575648269300,10.824269287109376,-2.4530244360029694,-0.15964520303308963,2.2743220658004284
1646167575658252300,10.834252197265625,-2.6212895833432674,0.027283143723011015,2.326766977178305
1646167575668235300,10.8442353515625,-2.499035661071539,0.9919617038488387,1.7678030148573218
1646167575678218200,10.85421826171875,-2.8305519269824027,2.4049293903976676,1.0371445152692496
1646167575688201500,10.864201416015625,-2.759166314421594,3.2437744161993263,0.5126978857085108
1646167575698184200,10.87418408203125,-2.144773310345411,2.4875235024541613,0.9719947283580899
1646167575708167400,10.88416748046875,-1.4383799218334257,0.9304431130468844,2.5459803675979376
1646167575718149400,10.8941494140625,-1.9142882920660078,0.5974731411963701,4.307480921310186
1646167575728132400,10.90413232421875,-2.9097102193713185,1.4312041849851607,5.5372565250217916
1646167575738115300,10.914115234375,-3.050399962043762,3.166896343702078,6.323726051419973
1646167575748098300,10.924098388671876,-2.6353344753086567,4.3581566310584545,7.473599850898981
1646167575758081500,10.93408154296875,-2.0864533694542944,4.633109882748126,9.325969593060016
1646167575768064300,10.944064208984376,-1.1888253152944146,4.273581574317813,10.482352628302573
1646167575778047200,10.954047119140625,-1.7574083159625529,3.194876237517595,10.383823280489445
1646167575788030500,10.964030517578125,-3.5657390099108217,2.720940628662705,9.347806161814928
1646167575798013400,10.974013427734375,-4.8152118322610855,2.8242911130219697,8.135446387806534
1646167575807996200,10.98399609375,-4.233710751700401,2.6659622532844542,7.007140277013182
1646167575817979400,10.9939794921875,-3.009602672231197,2.1465824055939913,6.040026014173031
1646167575827962400,11.00396240234375,-2.5100351939916608,0.5947685584127903,5.841267528891563
1646167575837945300,11.0139453125,-2.2437246829628945,-1.4982465076446532,6.045384910857677
1646167575847928300,11.02392822265625,-2.0962100627064704,-3.28097397378087,5.635217133036256
1646167575857911300,11.033911376953125,-2.53297650911808,-2.1355226669192313,5.430173283874988
1646167575867894500,11.04389453125,-2.006925513100624,0.30932606141269203,4.320586486598849
1646167575877877200,11.053877197265624,-0.8617442553520203,1.7827362339645623,2.9114713838249444
1646167575887860200,11.063860107421876,0.9655541739165783,3.078369334465265,0.8135109703198075
1646167575897843500,11.073843505859376,0.9485422488391398,4.813828853470087,-1.4488684364914892
1646167575907826400,11.083826416015626,0.7343255707282572,7.8332701981484885,-3.713454413436353
1646167575917809200,11.09380908203125,3.0176772576153277,10.12769163364768,-5.621450473490357
1646167575927792400,11.10379248046875,6.071214348641037,10.06500633715391,-6.353809639516473
1646167575937775400,11.113775390625,6.955991689056158,8.447142685481905,-6.21725831182301
1646167575947758300,11.12375830078125,6.248841783088445,7.071770277833938,-6.050931439068913
1646167575957741300,11.1337412109375,3.5954654551327225,6.197721836704015,-5.826143609517812
1646167575967724300,11.143724365234375,-0.5974539981044829,5.637790782916546,-5.739205915299058
1646167575977707300,11.153707275390625,-4.250429246789217,4.310019499877095,-4.506360987144708
1646167575987690500,11.1636904296875,-4.577854443994164,2.5781670654535294,-2.8049884466588497
1646167575997673200,11.173673095703125,-2.604358322286606,1.397102008897066,-1.7556690710797904
1646167576007656400,11.183656494140624,-0.06838423878774047,0.9157932409256696,-1.1764623850665985
1646167576017639400,11.193639404296874,2.627536368778348,1.0262859982550143,-0.8085939721837639
1646167576027622400,11.203622314453124,4.804435586702823,0.9229775994718075,-0.5157838690251112
1646167576037605400,11.21360546875,5.516431763657927,0.006723170775175094,-0.46695203357785936
1646167576047588400,11.22358837890625,5.5771033822417255,-1.3307482530236243,-1.0204559769272803
1646167576057571300,11.2335712890625,4.863297525516152,-2.2528297804385424,-2.27531662979573
1646167576067554300,11.24355419921875,3.9380081419706343,-2.617153506451845,-3.912897666111588
1646167576077537300,11.253537353515625,2.736554961901903,-3.010649550935626,-4.840245735752582
1646167576087520300,11.263520263671875,1.4855530302882194,-3.7210493986099955,-5.280788193571567
1646167576097503500,11.27350341796875,1.6574994964897631,-4.820023616456985,-5.4831929264009
1646167576107486200,11.283486328125,2.625364869958162,-5.341560349920392,-5.569220520037413
1646167576117468400,11.293468505859375,3.5265503243386744,-6.330419996100664,-5.712131445890665
1646167576127451400,11.303451416015625,4.095367572154104,-7.502934081932902,-6.692630675482749
1646167576137434400,11.313434326171874,4.611905182155967,-7.977136817291378,-7.849217708864807
1646167576147417300,11.323417236328124,4.871102938570082,-8.203568322396277,-8.338523905330895
1646167576157400300,11.333400390625,4.997931036889553,-8.173226375624537,-8.07208012331128
1646167576167383600,11.343383544921876,4.716175411708653,-7.8737968543261285,-7.33094611467719
1646167576177366300,11.3533662109375,4.130931637488305,-7.360366854950785,-6.375543916940689
1646167576187349200,11.363349365234376,3.3399577854081985,-6.617334903740883,-5.394394699007273
1646167576197332500,11.37333251953125,2.468542030869424,-6.034321665051579,-4.2184842487350105
1646167576207315500,11.3833154296875,0.8769222430005669,-5.019119370868801,-3.1118115853399035
1646167576217298200,11.393298095703125,-1.9237515553295612,-3.215966371819377,-2.009057556693256
1646167576227281400,11.403281494140625,-5.76197362742424,-1.487469093042612,0.991127591112256
1646167576237264400,11.413264404296875,-8.60202520415783,2.4837971754074095,5.441212564283609
1646167576247247400,11.423247314453125,-8.560353469598294,9.017904929885267,9.938741425675152
1646167576257230300,11.433230224609375,-8.410503099870681,15.206837310934066,12.73101535218954
1646167576267213300,11.44321337890625,-7.537136211264133,16.613890220481156,13.298631699782609
1646167576277196300,11.4531962890625,-5.336862547492981,12.53903147560954,11.39628650509715
1646167576287179500,11.463179443359374,-3.873620717734098,7.6367270508289335,7.8783099478363985
1646167576297162200,11.473162353515624,-3.7470612072229383,3.7827813399016854,4.7647436277836555
1646167576307145500,11.4831455078125,-3.4605423131629824,0.8320791849285364,2.3032477160334586
1646167576317128400,11.49312841796875,-2.1304481401339173,-1.4794190575778483,1.2583143004536628
1646167576327111200,11.503111083984376,0.9705345926776527,-2.232309554979205,0.4314066729441285
1646167576337094400,11.513094482421875,2.278306459261477,-1.3481114757567643,-0.7475161108866334
1646167576347077400,11.523077392578125,1.4180559495985507,-0.3402063528448343,-1.5593343058139084
1646167576357060400,11.533060302734375,1.1946296176590026,0.34893560274541374,-1.6699045122936367
1646167576367043300,11.543043212890625,5.246797076642513,3.1834277917861935,-1.542818932081759
1646167576377026300,11.5530263671875,8.804293158864974,7.519501185852289,-1.5444336738020181
1646167576387009300,11.56300927734375,2.729721901011467,11.665345438051222,-2.4764152484625575
1646167576396992500,11.572992431640625,-5.245472550040483,9.988052861332893,-3.530860588753223
1646167576406975200,11.582975341796875,-5.242110964652896,2.1315444109380244,-7.397385210746526
1646167576416958200,11.592958251953124,-2.450372898580879,-5.929031737062335,-12.285742943239212
1646167576426941400,11.60294140625,-2.351670532288402,-8.958846007195115,-13.966652541410923
1646167576436924400,11.61292431640625,-1.698108277992904,-9.041284051907063,-12.258006210529803
1646167576446907400,11.622907470703124,4.1851276303172105,-6.674676501119136,-8.46360282189548
1646167576456890400,11.632890380859376,9.27872268871665,-2.11760239482522,-4.577654537507891
1646167576466873300,11.642873291015626,10.656856962293386,0.762625124952197,-3.997468631199002
1646167576476856600,11.652856689453126,9.224940829646586,1.9274761288106441,-3.4789284492030736
1646167576486839300,11.66283935546875,7.888320469719171,3.003129676824808,-2.205898079524189
1646167576496822300,11.672822265625,6.535102610734104,3.9566146427631375,-1.024504521665722
1646167576506805500,11.682805419921875,5.129796837115287,4.562208546572923,0.48439518967941403
1646167576516787200,11.692787109375,3.001102554911375,4.385584736210108,2.571819157731533
1646167576526770400,11.7027705078125,0.20681100496426225,3.4249159962475297,4.787547872526943
1646167576536753400,11.71275341796875,-2.6308453471958635,1.328922791162133,6.104568921232223
1646167576546736000,11.722736083984374,-4.29053913885951,-1.2195523158609867,6.3485495270311825
1646167576556719400,11.73271923828125,-4.431584270840883,-3.339589828878641,4.90297077973485
1646167576566702300,11.742702392578124,-2.583908239454031,-3.9371465567052364,2.548719144912064
1646167576576685300,11.752685302734376,-0.32007596695329993,-3.075937138882279,1.1062088452756405
1646167576586668300,11.762668212890626,2.0297990236878394,-2.279779746684432,0.5620624763255938
1646167576596651300,11.7726513671875,4.108676843321323,-1.8504238687902688,0.21781967103891073
1646167576606634500,11.782634521484376,3.6365795558094978,-2.0443845984011886,-0.13501052799224852
1646167576616617500,11.792617431640625,2.707472659802437,-2.14682732026577,-1.4498235452592372
1646167576626600200,11.80260009765625,2.4246938290536404,-2.2844822252869603,-3.298770034973323
1646167576636583400,11.81258349609375,-0.045613750183582304,-2.041927852898836,-3.3995451158866286
1646167576646566400,11.82256640625,-1.1826947766501457,-1.6144389379203319,-2.2497625018224117
1646167576656549400,11.83254931640625,-0.31661095772385595,-1.4979139146894216,-0.806471573202312
1646167576666532400,11.842532470703125,0.09277538739629089,-1.1156494583159684,0.07209255525376647
1646167576676515300,11.852515380859375,0.19523140713386236,-1.1725438964486121,0.5449199836710468
1646167576686498300,11.862498291015624,0.3058686144351959,-1.1761404596358538,1.4264175352305173
1646167576696481500,11.8724814453125,-1.0467243906497954,-1.1457733784228563,1.675403694231808
1646167576706464300,11.88246435546875,-2.495029348039627,-1.3865899672329425,1.6434212867766618
1646167576716447200,11.892447265625,-3.405387119913101,-1.048629347488284,1.4469599725216626
1646167576726430500,11.902430419921876,-3.7005180672347544,-0.26805238626003264,1.1651749020505695
1646167576736413200,11.9124130859375,-3.211964150440693,0.9879074600219726,0.9495162084378301
1646167576746396400,11.922396484375,-2.454751113665104,2.2921172502100466,0.6725874188914894
1646167576756379400,11.93237939453125,-1.6508162193335592,2.610325706258416,0.9296734438486397
1646167576766362400,11.9423623046875,-0.9911857510402798,2.0020979468137026,2.108755071502924
1646167576776345300,11.952345458984375,-1.6008067184090613,1.5224106425642967,3.226204564978182
1646167576786328300,11.962328369140625,-2.8820038818001747,1.888111502149701,3.4577386539191006
1646167576796311300,11.972311279296875,-3.5462931356847283,2.658500246840715,3.3910891299694774
1646167576806294500,11.98229443359375,-2.8876152919411657,3.0340953084528444,3.9997541117876767
1646167576816277200,11.99227734375,-1.2929201882801948,3.1251351772934197,5.649878695595264
1646167576826260200,12.00226025390625,0.26995076722726224,2.931394227913022,7.735712325716018
1646167576836243700,12.01224365234375,-0.5183528427302837,2.4024399116694926,9.316834684967993
1646167576846226700,12.022226806640624,-2.399813070297241,2.2045476878285406,9.570795417511462
1646167576856209700,12.032209716796874,-3.2848598753035065,2.6655899128407237,9.368860640281438
1646167576866193000,12.04219287109375,-3.482258762669563,3.412241223591566,9.317499870878457
1646167576876175600,12.052175537109376,-3.0093431445121763,3.8445518596380945,9.048364365556836
1646167576886158600,12.06215869140625,-3.3574773677468297,3.4839573832809925,8.399698212739825
1646167576896140800,12.072140869140625,-3.445818499022722,2.047416513442993,7.81694917794466
1646167576906123500,12.08212353515625,-3.139099989759922,0.5314385342746972,6.875921542519331
1646167576916106800,12.092106689453125,-3.617996435892582,-0.18820435804128646,5.550488347038626
1646167576926089700,12.10208984375,-3.9575241588234897,0.17080781756043434,4.438949831172824
1646167576936072700,12.11207275390625,-2.188549323707819,1.4907430001467465,3.2117353101208805
1646167576946055700,12.1220556640625,-0.17523378077652305,2.444685062202811,1.4182827440917491
1646167576956038700,12.13203857421875,1.5812088684916494,3.6146675837308164,-0.8296203935995697
1646167576966022000,12.14202197265625,2.0160276879668233,6.059884560853242,-3.1188544895887373
1646167576976004900,12.1520048828125,2.1593173840045927,9.204724555569886,-5.044885095766187
1646167576985987600,12.161987548828124,4.124333846658468,11.546033998972177,-6.647246642401814
1646167576995970800,12.171970703125,5.648111101400852,11.642128228592872,-7.497036840587854
1646167577005953800,12.181953857421876,6.318479382938146,10.651672253131865,-8.537379421246051
1646167577015936500,12.1919365234375,4.683126251804828,9.274281491398812,-8.707399887821078
1646167577025919700,12.201919677734375,0.43757410953268405,7.11837362357676,-8.027621972903608
1646167577035902700,12.21190283203125,-4.852014499479532,4.0974166136384005,-6.157376966834068
1646167577045885700,12.2218857421875,-6.375252825039625,1.756900950962305,-3.6354403226464984
1646167577055868700,12.23186865234375,-2.879938181442022,0.6364484762787819,-1.5319710825920103
1646167577065851600,12.2418515625,0.18740487822666763,0.05275426958799362,-1.3187281448841095
1646167577075834600,12.251834716796875,1.9698726705133913,-0.7259200728893279,0.7748284807041287
1646167577085817900,12.26181787109375,3.2662077818036077,-0.9397703288406133,1.266784899418056
1646167577095800600,12.271800537109375,5.888727199202775,-1.5795616858065127,1.9808932462215423
1646167577105783800,12.28178369140625,6.231529998281598,-2.1347171957552433,1.92987091499269
1646167577115766800,12.291766845703124,5.457561641538143,-2.8668747017294165,0.6803077840104699
1646167577125749800,12.301749755859374,4.701152906882762,-4.211833850935101,-1.4269839369416235
1646167577135732700,12.311732666015626,3.0152982535243034,-4.560736720454693,-3.2674878847420215
1646167577145715700,12.3217158203125,0.614811375618726,-4.908315647894144,-4.060355003222823
1646167577155698700,12.33169873046875,0.6401660354971885,-5.267492658668756,-4.204667904828488
1646167577165682000,12.341681884765626,2.982788315063715,-5.787647582384944,-4.027231901299953
1646167577175664600,12.35166455078125,4.56175817245692,-5.950417639440298,-4.651341705009341
1646167577185647600,12.361647705078125,5.719851226487755,-6.3991591858059165,-5.77737811730504
1646167577195630800,12.371630859375,6.462595592927932,-6.873204100254178,-7.08357177478671
1646167577205613600,12.381613525390625,6.881649857038259,-6.878132204306125,-8.103611572128534
1646167577215596800,12.3915966796875,6.458364823490381,-6.944674760749936,-8.58693518705368
1646167577225579800,12.401579833984375,5.9954223178148265,-7.192028057852387,-8.40873433663249
1646167577235562800,12.411562744140625,4.812357319612801,-7.197031565228104,-7.4946689424127335
1646167577245544700,12.421544677734374,3.613761867062747,-6.582133241978287,-6.276730491489172
1646167577255527700,12.431527587890624,2.5515540760770437,-5.582052529081702,-5.214807362663746
1646167577265511000,12.441510986328124,0.4069999614402652,-4.0374382380157705,-4.438161018882692
1646167577275493600,12.45149365234375,-2.52631822027266,-2.7180980987131593,-3.0175884102880954
1646167577285476600,12.4614765625,-6.025010815870761,-1.5784984404891729,-0.31627398085445163
1646167577295459800,12.4714599609375,-8.891861552202702,1.694292811357975,3.2998549076005816
1646167577305442800,12.48144287109375,-8.355233048069477,7.0020876697987315,8.638332781335711
1646167577315425500,12.491425537109375,-9.51455213676393,12.552184387171268,11.221528488606214
1646167577325408800,12.50140869140625,-9.85135423412323,15.446524018931388,12.079873164647816
1646167577335391700,12.511391845703125,-6.330507674384116,13.654644109046458,11.56596385732293
1646167577345374700,12.521374755859375,-2.7011773590505124,9.787958159011602,8.98477832083106
1646167577355357700,12.531357666015625,-1.0487819077014922,6.192949799996614,4.688813065269589
1646167577365340700,12.541340576171875,-0.7695052398547529,3.1306969030737877,1.2846969882056116
1646167577375323600,12.55132373046875,-0.09759849670380354,-0.35677521032989024,1.3196645489513874
1646167577385307000,12.561306884765624,2.1236101108074186,-1.4946417611509561,2.14986683409214
1646167577395289600,12.57128955078125,2.3744389750659463,-1.692278548926115,1.5533365267038344
1646167577405272800,12.58127294921875,0.28978622529283166,-0.7718284221053123,-0.16052140134572981
1646167577415255800,12.591255859375,0.07162555879652499,2.1622908468574282,-0.8653340965375304
1646167577425238800,12.60123876953125,4.883951606488227,7.035439319780468,-0.5067576820045709
1646167577435221800,12.6112216796875,5.853128647077083,10.302941817569732,-1.3061743682593105
1646167577445204700,12.621204833984375,-0.8529445705637335,11.273487808424234,-4.295809480477869
1646167577455187700,12.631187744140625,-4.272889792661369,4.009851727432013,-8.813093720436095
1646167577465170700,12.641170654296875,-2.6882965424284335,-7.516847456473112,-12.990178329551219
1646167577475153700,12.651153564453125,-4.0132010378599166,-11.544207952588796,-15.234183583021164
1646167577485136600,12.66113671875,-2.5515888551294803,-11.693832696866988,-14.749458284604549
1646167577495120000,12.671119873046875,4.149803803479672,-7.6074536100715395,-10.591473512756824
1646167577505102600,12.6811025390625,9.731317987900972,-2.7539737142145633,-5.811237716808915
