seconds_elapsed,z,y,x,a,ave,std
0.032625977,-0.036969548,0.025398645,-0.12982991,0.132290955,0.112250004,0.029648222
0.042609131,-0.026800329,0.038952539,-0.101904962,0.109095928,0.107535893,0.029834076
0.052592041,-0.032592941,0.093583124,-0.107404728,0.142455525,0.107943971,0.029880496
0.062575195,-0.056391165,0.120025725,-0.120707862,0.170225035,0.102767769,0.027869412
0.072558105,-0.050253685,0.102054015,-0.086232761,0.13360805,0.091584876,0.019836413
0.082541016,-0.006776362,0.058192661,-0.065945175,0.087949713,0.090917858,0.018477746
0.092523193,-0.00040069,0.032186113,-0.099497901,0.104574271,0.099030497,0.029759072
0.102506104,-0.01977759,0.028240591,-0.080091189,0.084924258,0.100238137,0.030201286
0.112489258,-0.0529495,0.006842413,-0.078276833,0.078575322,0.101954545,0.029766801
0.122472168,-0.089383334,-0.016598668,-0.077032971,0.07880098,0.105330712,0.028823335
0.132454834,-0.141363112,-0.063301383,-0.056951137,0.08514985,0.109739647,0.02778124
0.142438232,-0.087973467,-0.111416886,-0.019880759,0.113176708,0.115235128,0.027808893
0.152421143,0.03222323,-0.087815062,-0.022667759,0.090693508,0.119087614,0.029850449
0.162404053,0.046304655,0.010334932,-0.057474284,0.058396097,0.128949065,0.034731385
0.172386963,-0.038206104,0.112525724,-0.058746788,0.126937874,0.152046479,0.052426154
0.182370117,-0.039684945,0.136852941,-0.099287473,0.169076106,0.180919664,0.093816405
0.192353027,0.000605857,0.074120883,-0.090074823,0.116650671,0.222840794,0.153704124
0.202336182,-0.002905074,0.013591303,-0.10117957,0.102088339,0.284370828,0.211259792
0.212319092,-0.026406361,-0.017628596,-0.110945177,0.112336992,0.362485503,0.266589473
0.222302246,-0.076048928,-0.064866148,-0.10437632,0.122890331,0.446318057,0.303940527
0.232285156,-0.118312491,-0.123778355,-0.065637132,0.140104655,0.51449867,0.300190284
0.242268066,-0.070108432,-0.139731127,-0.059064183,0.151701567,0.571763894,0.277035097
0.25225,-0.046584933,-0.143490187,-0.123483172,0.189308023,0.625581756,0.240004152
0.262233154,-0.107101946,-0.251050983,-0.143904613,0.289370236,0.661583333,0.194560864
0.272216309,-0.088538115,-0.386605116,-0.152701668,0.415669719,0.680376026,0.16444648
0.282198975,-0.05757336,-0.547849571,-0.214343008,0.58828741,0.685805933,0.156311671
0.292182129,-0.163802615,-0.683221333,-0.262604058,0.73195101,0.660082551,0.188163713
0.302165283,-0.253701205,-0.791586431,-0.391784564,0.883235089,0.599580693,0.244240671
0.312148193,-0.190856626,-0.816914934,-0.486219336,0.950662533,0.567973922,0.225196798
0.322130859,-0.165289639,-0.627788784,-0.503406033,0.80469646,0.525297089,0.185584295
0.332114258,-0.154062434,-0.508040708,-0.499917022,0.712756894,0.497328539,0.160788365
0.342097168,-0.148729549,-0.555536034,-0.40904082,0.68988019,0.45009082,0.159946332
0.352079834,-0.230631587,-0.482379612,-0.262805133,0.549323792,0.399443838,0.156139887
0.362062988,-0.282299815,-0.462960626,-0.116103583,0.477297164,0.381232074,0.148005144
0.372046143,-0.356911988,-0.466090741,-0.060250178,0.469968789,0.412659848,0.191919493
0.382029053,-0.41319677,-0.323451033,0.070540102,0.331053586,0.444868397,0.223296402
0.392011963,-0.443226582,0.073113167,0.103760819,0.126932434,0.499240252,0.253162647
0.401993896,-0.58798752,0.555059648,0.11656594,0.567167375,0.586701493,0.260406483
0.411977295,-0.628790655,0.509445898,0.122188456,0.523894209,0.626179631,0.283365321
0.421959961,-0.577663694,0.524830514,-0.013763737,0.525010961,0.679860869,0.308624961
0.431943115,-0.410901061,0.21904081,0.099012747,0.240379701,0.744636922,0.336082829
0.441926025,-0.159229608,-0.149200381,0.106670569,0.183410371,0.873145683,0.363289475
0.45190918,-0.074864102,-0.285263049,-0.231225754,0.367206149,0.950728105,0.281296748
0.46189209,-0.07341858,-0.651353784,-0.449810052,0.791574908,0.976595752,0.234438471
0.471875,-0.117277887,-0.696589934,-0.37697804,0.792054277,1.017673405,0.234408437
0.481858154,-0.044622109,-0.79661858,-0.36142099,0.874772138,0.986330921,0.279161968
0.491841309,0.150263919,-0.905493381,-0.427988097,1.001544843,0.952574408,0.309384219
0.501823975,-0.012991291,-0.871436213,-0.407362657,0.961948755,1.021568195,0.381204918
0.511806885,-0.089959088,-0.967898107,-0.433902874,1.06070658,1.112303426,0.456720879
0.521790283,0.028062896,-1.017729182,-0.582769493,1.172771491,1.166650139,0.479132351
0.531773193,0.021376112,-1.459814193,-0.442711034,1.525467318,1.196414548,0.487755561
0.541756104,-0.493861376,-0.946063876,-0.158411277,0.959234586,1.191159163,0.484453776
0.551739258,-0.504598604,0.177414084,-0.600211042,0.625882618,1.208500456,0.478913564
0.561722168,-0.600281477,0.116884504,-1.196656593,1.202351442,1.187073626,0.508387144
0.571704102,-0.374866455,-0.110891986,-0.465606172,0.478629439,1.093259907,0.578619112
0.581687012,0.031990006,-0.505731846,-0.181181328,0.537207012,1.151611563,0.54195471
0.591670166,-0.096787473,-1.472701732,-0.832023655,1.691482709,1.219209334,0.501772139
0.60165332,-0.346460153,-1.47906776,-1.143085747,1.869301063,1.160665433,0.476785405
0.611635986,-0.628467414,-0.944480991,-1.29666069,1.604173708,1.051965048,0.423802258
0.621619141,-0.801305276,-0.532535682,-1.370593941,1.470415589,0.928150529,0.425247893
0.631602295,-0.776236009,-0.337474882,-1.433731073,1.472913469,0.814636583,0.416767587
0.641584961,-0.702051122,-0.151278941,-1.12249947,1.132647509,0.725762216,0.357456593
0.651568115,-0.418122828,0.207051682,-0.355747036,0.411614325,0.806624886,0.502421955
0.661551025,-0.061730772,-0.060636547,0.257162159,0.264214244,0.882563118,0.494302083
0.67153418,0.261424493,-0.029788989,1.061728191,1.062146005,0.995685063,0.468621451
0.68151709,-0.099318598,-0.251422154,1.18684627,1.213184722,1.237176701,0.881231802
0.6915,-0.630054391,-0.415565837,1.025006188,1.106043693,1.186128875,0.895807954
0.70148291,-0.938787163,-0.233614695,0.746601042,0.782297221,1.161621859,0.90100085
0.711466309,-1.071241577,0.257001415,0.260628374,0.366028519,1.211183975,0.892361977
0.721448975,-1.138948939,0.333655032,-0.03293021,0.335276123,1.227100438,0.878456676
0.731432129,-1.120865001,0.582631546,0.042365562,0.584169803,1.342203119,0.828022365
0.741415283,-1.280144878,1.9214538,-0.276696296,1.941274207,1.333848174,0.836011924
0.751398193,-1.123359887,1.158612402,0.16985417,1.170996642,1.225927781,0.820140187
0.761381104,-1.312387836,-1.268175185,0.582208644,1.395433698,1.26851826,0.827209997
0.771364014,-0.656482964,-3.348338953,0.937330827,3.477062384,1.399471398,0.933731678
0.781347168,-0.373344506,-0.631883945,0.307439517,0.702706465,1.314350575,0.763788144
0.791330322,-0.448518844,0.856239228,0.090165424,0.86097353,1.479477663,0.79169243
0.801312988,-0.022293519,1.256941843,-0.23059184,1.277918383,1.64217633,0.814711614
0.811295166,-0.019021438,0.498657378,-0.164829182,0.525193145,1.767927609,0.845259526
0.82127832,0.154085961,-1.397272105,0.506682425,1.486302935,1.944852938,0.745952014
0.831260986,0.013552798,0.499630022,0.031473435,0.500620351,2.01622702,0.732690639
0.841244141,0.041354924,0.858228356,0.08129735,0.862070282,2.154194718,0.538462457
0.851227051,0.568968858,-1.460575241,0.645611441,1.596901427,2.232215022,0.378288838
0.861210205,0.685413948,-2.605835409,0.725574182,2.704965078,2.259787099,0.338984644
0.871193115,0.472027145,-2.625806769,0.015775077,2.625854154,2.164631151,0.334185298
0.881176025,0.551358529,-2.290409862,-0.543352552,2.353977343,2.058756409,0.33897084
0.89115918,0.1615057,-2.394624854,-0.675068714,2.487960201,2.052475881,0.333987947
0.90114209,0.310568755,-2.414489246,-0.773726657,2.535431178,2.381114259,1.170388963
0.911125,0.336524449,-2.067567906,-0.994810225,2.294446432,3.438211752,3.428288548
0.921108154,0.254983646,-2.048628812,-0.802067639,2.200043751,4.588282098,4.58544408
0.931091309,0.541543164,-1.806916151,-0.520165445,1.880297335,4.898177569,4.517787704
0.941073975,0.186881,-1.492916837,-0.684295977,1.642273323,4.838483737,4.561005766
0.951057129,-0.124657476,-1.718283343,-0.744457016,1.872622198,4.787323307,4.599279193
0.961040039,0.830322843,-1.751478926,0.082175229,1.753405599,4.702295201,4.659839068
0.971023193,0.084911157,-1.254560501,0.939096083,1.56710673,4.631547154,4.709182952
0.981006104,1.111405099,0.246343828,2.27789028,2.29117206,4.61981699,4.7169413
0.990989014,-0.865279444,3.479258412,4.608449781,5.774343987,4.549720517,4.756071536
1.0009729,-2.180671138,11.00013848,7.125646245,13.10640611,4.098295548,4.832041572
1.010956055,-0.830052794,12.47373804,5.891690725,13.79514989,2.931011363,3.818579197
1.020938721,0.418975938,4.000878732,3.474529337,5.298998466,1.737571199,1.211958494
1.030921631,0.750322693,0.894246011,0.920507702,1.283359013,1.406272195,0.3112556
1.040905029,0.676815704,1.063164653,-0.38482901,1.130669026,1.474816187,0.349735096
1.050887939,-0.148644939,0.847967659,-0.571079896,1.022341136,1.520747772,0.331191158
1.060870605,-0.883032689,0.991861751,-0.331918125,1.045925128,1.524284178,0.325998469
1.070854004,-1.411242762,1.440658827,0.162594408,1.449805089,1.49822794,0.370558801
1.080836914,-1.323916507,1.526381884,0.446001892,1.590207328,1.406807149,0.470518209
1.090819824,-1.060604594,1.091062714,0.630412411,1.260094304,1.287317447,0.553225649
1.100802734,-0.71970792,0.52460372,1.334127959,1.433564255,1.223184953,0.588699572
1.110785889,-0.603456892,-0.316390008,1.833652474,1.860748246,1.164408423,0.594077924
1.120769043,-0.743241648,-0.931026466,1.754257451,1.98600843,1.058829549,0.553365267
1.130751953,-0.639747664,-1.227760757,1.539081791,1.968798932,0.928181788,0.466438598
1.140734619,-0.431141446,-0.993719946,1.241198038,1.589984874,0.794190926,0.316671043
1.150718018,-0.410474506,-0.406275447,0.97656569,1.057705197,0.721275002,0.179106212
1.160700928,-0.27698052,-0.292134688,0.729007518,0.785362742,0.756344723,0.258350594
1.170683594,0.121836866,-0.031841245,0.534649861,0.53559718,0.91154478,0.540865736
1.180666992,0.130768945,0.147972885,0.366570957,0.39531031,1.203514434,0.916636065
1.190649902,0.223829652,0.243603589,0.568799456,0.618769368,1.592746079,1.254821061
1.200632813,0.034264527,0.360074252,0.765325032,0.845798954,2.025447127,1.554595182
1.210615723,-0.511753737,0.377763638,0.71081252,0.804959505,2.459048487,1.756662554
1.220597656,-0.893373027,0.342398894,0.586962634,0.679530821,2.90543502,1.844582789
1.230581055,-1.052236724,0.369437708,0.508938899,0.62889031,3.403499786,1.848732907
1.240563721,-1.13906862,0.575115179,0.640517991,0.86082563,3.960895665,1.766610619
1.250546631,-1.678168191,0.905704393,1.078562421,1.408402408,4.557352925,1.62007589
1.260530029,-2.278174065,1.398591955,1.872754066,2.337363311,5.081816779,1.340591454
1.270512939,-2.347308099,1.945665865,2.855422749,3.455293726,5.433531827,0.989942198
1.28049585,-2.019253664,2.240159684,3.655875792,4.287626758,5.620318407,0.744964385
1.29047876,-2.199605263,2.532453362,4.248225307,4.945779846,5.710085189,0.623082443
1.300461914,-2.879059061,2.404441315,4.590189902,5.181812556,5.734516068,0.59687372
1.310445068,-3.573927869,2.015873374,4.867932784,5.268824826,5.726684359,0.604539068
1.320427734,-3.917426249,1.607592433,5.427086424,5.660178485,5.679146417,0.655238574
1.330410645,-3.599405717,1.219838147,6.08172113,6.202849104,5.575873217,0.727491258
1.340394043,-3.340918447,1.039431311,6.745787096,6.82539823,5.400052269,0.766152461
1.350376953,-2.975177256,1.261979837,6.532255405,6.653040942,5.137292099,0.677737015
1.360359619,-2.95611775,1.191231646,5.73204143,5.854513797,4.89454439,0.503762241
1.370343018,-3.082202044,1.198770225,5.186422395,5.323159523,4.729536652,0.426637571
1.380325928,-3.187393188,1.396743112,4.993634801,5.185294577,4.574291187,0.463266112
1.390308838,-3.097553927,1.629945135,4.927504332,5.19008864,4.398333978,0.52748748
1.400291748,-2.880634932,1.600082496,4.846173957,5.10349547,4.26692797,0.474940263
1.410274902,-2.801117743,1.128354626,4.658748182,4.793445398,4.252275996,0.450539284
1.420258057,-2.992051818,0.240116332,4.621212524,4.627446493,4.33708277,0.599587365
1.430240723,-2.927905217,-0.40860652,4.42581767,4.444639618,4.459095218,0.751228542
1.440223633,-2.902611786,-0.408421811,4.177880728,4.197796535,4.580468987,0.832718192
1.450207031,-2.785219624,0.195689745,4.221030134,4.225563852,4.709257261,0.862629651
1.460189941,-2.211442562,0.680146164,4.149058538,4.204436414,4.839430486,0.877899578
1.470172607,-1.577117361,1.517907486,3.45169119,3.770704869,5.001875361,0.895488493
1.480156006,-0.566754762,2.489845223,2.352922724,3.425722491,5.186900689,0.808958306
1.490138916,1.278680358,3.59754343,1.442663737,3.876028559,5.305759331,0.602409689
1.500121826,3.007739216,4.951266901,0.237832879,4.956975731,5.219046557,0.823723996
1.510104736,3.871214826,5.571252903,-0.887587502,5.641513137,4.885989832,1.360673056
1.520087891,4.145513413,5.494603963,-2.000853207,5.847570971,4.446508906,1.710452092
1.530070801,3.316100232,5.044615047,-2.563024149,5.658377308,4.083092143,1.759532088
1.540053955,1.654839922,4.637261742,-2.930610969,5.485679275,3.920323083,1.679756441
1.550036621,0.068717544,3.739891462,-4.069915736,5.527296106,3.792569803,1.60265749
1.56002002,-0.847162699,2.719233825,-5.155741426,5.828885163,3.50500797,1.521530529
1.57000293,-1.209302725,1.832712271,-5.313787377,5.620958153,2.984986119,1.527064452
1.579985596,-0.969323756,1.603617684,-4.326691233,4.614308909,2.607767832,1.274321331
1.589968994,0.016562428,1.26637135,-2.729429932,3.008900821,2.478773239,1.120707544
1.599951904,0.983245313,1.204124445,-1.093292665,1.626408476,2.556896447,1.180569801
1.609934814,1.349295133,1.241145724,0.117591922,1.246703881,2.751571509,1.1715566
1.619917725,0.493003297,0.343719914,2.186552305,2.213403343,3.017655837,1.09950412
1.629900879,0.775515659,0.292151055,4.020084952,4.030686698,3.240080656,1.138592588
1.639883789,1.270464172,0.710934101,4.147658316,4.20814648,3.331521949,1.231354843
1.649866943,1.78125564,0.302115984,2.634410931,2.651677774,3.475077638,1.397640064
1.659849609,2.418841596,-0.466423334,0.421510425,0.628666656,3.898512356,1.694036072
1.669832764,2.361666003,-0.971722049,-1.572808412,1.848775282,4.630604718,1.704621109
1.679815918,2.356070959,-1.3053046,-3.057379446,3.324362972,5.312790723,1.816227578
1.689798828,1.974717188,-1.304817693,-3.558448853,3.790132907,5.883539,1.990146114
1.699782959,1.700522207,-1.755045678,-3.112439654,3.573159097,6.41299144,2.065633704
1.709765869,2.494388712,-2.162192063,-3.254819542,3.907547155,6.921304571,1.924898598
1.719748779,2.888823499,-2.42318927,-3.717647773,4.437651542,7.295533104,1.646204585
1.729731934,3.211954798,-2.793795437,-4.080283985,4.945099629,7.527352433,1.366977313
1.739714844,3.714702075,-3.32577933,-4.559668799,5.643703368,7.607722885,1.229507223
1.749697754,4.030957644,-4.49309877,-5.218180054,6.886024951,7.441740927,1.5529397
1.759680664,3.786236157,-5.171268081,-6.037712477,7.949590273,6.938508706,2.291312746
1.769664063,3.928901291,-5.846027291,-6.403427365,8.670635334,6.510025355,2.456833877
1.779646729,3.601506489,-6.357838749,-6.41499213,9.031845746,6.50862253,2.455603488
1.789629639,2.95770765,-6.76739161,-6.060809274,9.0846573,6.927331628,3.117825734
1.799613037,2.291798832,-6.530905744,-5.681428849,8.656290406,7.483584527,3.860781036
1.809595947,1.532872708,-5.904558975,-4.863755791,7.649832487,7.853434041,4.1236122
1.819578857,0.819755856,-5.564553113,-3.831081845,6.755844836,7.98158573,4.135190384
1.829561768,-0.046633595,-5.171090386,-2.511687345,5.748804145,7.912607941,4.160735358
1.839544922,-1.969985191,-3.832024386,-1.089458201,3.983883792,7.788978474,4.240789637
1.849528076,-4.65679471,-1.575727222,0.976369582,1.853702738,7.780532557,4.248436628
1.859510742,-6.526172285,1.526612186,3.331650853,3.664756768,8.083999984,3.909072333
1.869493652,-7.284466103,5.170023634,6.943176631,8.656607078,8.497356588,3.628384338
1.879477051,-6.846728181,9.301147286,9.393026529,13.21893673,8.607008471,3.648055503
1.889459961,-5.896549271,10.61740173,10.0901361,14.64718629,8.394823005,3.428752646
1.899442627,-4.616285589,7.853292411,9.537637244,12.35478555,7.986735696,2.855195574
1.909426025,-2.962078705,4.402968417,7.7706416,8.931349381,7.327311636,2.510957636
1.919408936,-1.917927379,1.697692391,5.823659391,6.066066943,7.035201468,2.477045
1.929391602,-1.748738687,0.178198512,4.508989582,4.512509475,7.73751903,3.035411201
1.939374756,-1.59267748,0.544477464,3.861224762,3.899424621,9.031976785,3.993123066
1.94935791,-0.406164387,3.776082719,3.104420891,4.888377007,10.55766517,4.607950396
1.959341064,-0.380346056,7.666666262,1.426908241,7.798322813,11.79421922,4.579742087
1.96932373,-1.507610841,9.739489604,-0.515564966,9.753125908,12.00411091,4.437692797
1.979306641,-0.807800922,11.07557688,0.690526688,11.09708206,11.50500416,4.917524676
1.989290039,3.317050665,10.36979943,2.028357593,10.56631321,10.84370484,5.353262296
1.999272949,4.602562769,5.732539443,-0.567335485,5.760544941,10.35890819,5.571501091
2.009255127,2.537731302,-1.161482404,-5.896951422,6.010247703,10.44222074,5.50798425
2.019237793,2.030398743,-7.762039192,-10.53940313,13.08924256,10.45393494,5.498662702
2.029220947,2.205188324,-12.56067632,-12.12350188,17.45708703,9.811390813,5.528512931
2.039204834,0.424859151,-13.98305189,-13.09344932,19.1563085,8.622082265,5.010824773
2.049187988,-1.71515469,-12.04513269,-12.35364101,17.25391746,7.108059134,3.720300379
2.059171143,2.718041692,-5.719324572,-8.077417977,9.897239754,5.731732005,1.720779501
2.069153809,8.670942673,-0.182349787,-4.758565816,4.762058386,5.029765758,1.244106072
2.079136963,10.33116955,2.155737187,-3.931901642,4.484088909,4.789818503,1.481365377
2.089120117,8.416723582,4.788117489,-3.126246938,5.718346702,4.539314679,1.70657134
2.099103027,6.060486618,6.195900466,-2.255506014,6.593670447,4.09943681,1.901725113
2.109085938,2.882559178,6.121606565,-0.266152106,6.127389647,3.535838402,1.91411982
2.119068848,-1.118549271,6.185073952,2.480142745,6.663801304,3.021630728,1.838028672
2.129052246,-3.911179756,4.523759281,3.239400439,5.564001549,2.503720548,1.42119441
2.139034912,-3.95610494,2.893682045,2.784866281,4.016077188,2.136477507,0.992908258
2.149017822,-2.488652214,2.098333046,2.789553562,3.490646165,1.970120162,0.780749179
2.159000977,-0.445842756,0.736293583,2.781784097,2.87757728,1.866986511,0.625830195
2.168984131,1.753583789,-0.845879162,2.205969245,2.362585843,1.80199962,0.546189338
2.178966797,2.986411766,-1.625395216,1.12904027,1.979050667,1.769086713,0.520740899
2.188949951,3.018050767,-1.273311963,0.346318333,1.319568014,1.748310378,0.516073082
2.198933105,3.269171892,-0.957408277,0.023077143,0.957686359,1.746068097,0.517976252
2.208916016,3.724371237,-0.769907683,-0.614885098,0.985312907,1.773655163,0.481300878
2.218898926,3.194172473,-0.708785398,-1.304590314,1.484699508,1.862866183,0.403262144
2.228881836,2.099761618,-0.747008454,-1.737820403,1.891571141,1.906943425,0.383103769
2.23886499,1.475935307,-0.998212581,-2.13022193,2.352503736,1.888024885,0.388035231
2.248849121,-0.42800797,-1.567877093,-1.894720399,2.459309653,1.812617764,0.362901391
2.258832031,-1.324180565,-1.827064036,-1.274567224,2.227708374,1.690770376,0.32821191
2.268814941,-0.202822081,-1.936881086,-0.619223785,2.033456771,1.694551674,0.334533087
2.278798096,2.028393833,-1.766689939,-0.127535954,1.771287317,1.828352102,0.603097564
2.288781006,2.973434796,-1.280854634,-0.204931913,1.297145204,2.087651132,0.969152655
2.298763672,2.814836471,-1.06869423,-0.616080811,1.233557021,2.403627194,1.156833096
2.30874707,0.61704951,-1.765060877,-0.639748102,1.87742311,2.670491625,1.163921051
2.31872998,-1.04324517,-1.589637674,-1.086505489,1.92547192,2.84895631,1.165456804
2.328712891,-2.850394107,-1.621315838,-0.519087842,1.702385748,3.039188961,1.154396789
2.338696045,-3.778606685,-1.548474474,0.396501364,1.598432522,3.281983481,1.10183373
2.348678955,-3.549684532,-0.199859725,1.224634441,1.240835777,3.565656874,0.991521906
2.358661865,-2.945274869,0.874949774,2.089748758,2.265521348,3.931731621,0.697922332
2.36864502,-2.275748153,1.752747338,2.880039304,3.371461052,4.292086287,0.674493632
2.37862793,-1.716581508,2.503400871,3.574899052,4.364277621,4.679229571,1.044525348
2.388611084,-2.073451118,2.441899815,3.728422558,4.456905819,5.061028547,1.470534142
2.398593994,-2.804397203,1.916198363,3.399317445,3.902201335,5.416877804,1.694749438
2.408578125,-3.405256187,1.668175204,3.260053351,3.662069956,5.741872259,1.684709267
2.418560791,-3.699734808,2.013004541,3.255741625,3.827798429,6.014778613,1.54057252
2.428543945,-3.338181423,2.578779644,3.226380214,4.130330948,6.254102515,1.357222825
2.438526855,-2.494341658,2.881391303,3.371688848,4.43516646,6.461349769,1.16117396
2.44851001,-1.952044753,2.780603947,4.03655298,4.901583241,6.625395766,0.962159158
2.45849292,-1.993469819,2.566752522,5.278043279,5.869068015,6.731812744,0.812887179
2.46847583,-1.956038353,2.030648919,6.952407985,7.242893885,6.715405479,0.831576161
2.478458984,-1.963431385,1.62111827,8.020067027,8.182267386,6.554607366,0.868668481
2.488442139,-2.769368852,1.04278822,7.947276517,8.015398387,6.312719383,0.702673679
2.498424805,-3.869081321,0.2318471,7.148387069,7.152145885,6.025832772,0.507478106
2.508407959,-4.903846394,-0.177183782,6.388676955,6.391133493,5.710979737,0.663686467
2.518391113,-5.077255333,-0.228908124,6.216824597,6.221037453,5.546225059,0.678719114
2.528374023,-3.995242187,-0.580711976,6.175560274,6.202803487,5.715856376,0.973946262
2.538356934,-2.890316952,-1.48052205,5.892477492,6.075626431,6.19969329,1.877940555
2.548340088,-2.914657613,-2.389949848,5.466109105,5.965753014,6.900868312,2.788815746
2.558323975,-3.25464477,-2.37845464,5.185549704,5.704995373,7.791483538,3.640136913
2.568306885,-2.374484568,-0.272225873,5.628333219,5.634912754,8.608331765,3.980838814
2.578290039,-0.530995978,1.420901987,5.585487764,5.763387547,9.295849945,4.001580893
2.588272949,0.906858824,2.075312236,4.709551317,5.146532278,9.733963076,3.826865736
2.598255859,2.34247498,2.753570979,2.90633519,4.003615537,9.89775559,3.658357501
2.608239014,2.763801865,4.695999177,0.6702288,4.743586715,9.799204372,3.825276466
2.618221924,3.003613076,7.648457236,-2.045859932,7.917350627,9.407676959,4.468915896
2.628205078,3.591924422,10.23862337,-4.132563915,11.04117263,8.787557032,5.027972744
2.638187988,4.125665972,11.90550561,-5.434920771,13.08737665,7.946072013,5.278315614
2.648170898,5.592759217,13.13729664,-6.970294355,14.87190528,6.907600785,5.185385643
2.658154053,3.97153281,11.71964752,-7.424502935,13.87347764,5.593833746,4.636334468
2.668136963,1.447770266,9.9690068,-7.557868034,12.51009456,4.233819619,3.952401524
2.678119873,-2.043151842,7.355149997,-6.986632327,10.14451885,3.312958543,2.830325956
2.688104004,-4.992281048,4.179282411,-5.344385929,6.784457416,2.899660561,1.975130839
2.698087158,-4.485114785,1.97756381,-2.279953788,3.018103361,3.020527194,2.229732081
2.708069824,-2.090788622,0.717715139,0.413505398,0.828312583,3.600018207,2.826868317
2.718052979,-0.375254943,0.478892939,1.647979681,1.716151356,4.404040826,3.058141232
2.728036133,0.542491843,1.154953295,2.358739594,2.626322445,5.060742593,3.115005483
2.738018799,2.237397818,0.598578472,2.635545195,2.702664364,5.620255497,3.129947667
2.748001953,3.948448872,0.14978841,1.727754059,1.734234891,6.215861228,3.0844481
2.757985107,5.097036723,0.26390345,-0.071188044,0.273336365,6.963817096,2.800829247
2.767968018,5.251125461,0.183496034,-3.296380509,3.301483796,7.932611439,1.824364825
2.777950928,5.510320587,-1.253572074,-5.879384201,6.011539032,8.623015074,1.106131507
2.787933838,4.641979126,-3.379434348,-7.243579966,7.993123747,9.079328057,0.845115323
2.797916992,2.057552269,-4.796505378,-7.393425659,8.813013493,9.310922371,0.832962042
2.807900879,1.341930741,-5.314508092,-7.099787581,8.868538773,9.397505583,0.821629196
2.817884277,1.98074507,-5.452860917,-6.235158126,8.283169021,9.373514244,0.840021452
2.827866943,3.137458652,-5.87271013,-5.753567618,8.221451491,9.248379421,1.058038216
2.837849854,4.34633,-6.364027667,-5.871338258,8.658721677,8.948313618,1.595647877
2.847833008,5.363752893,-6.643475892,-6.384216468,9.213793564,8.379692734,2.405284929
2.857815918,6.321834539,-6.903995544,-7.180664368,9.961279799,7.608053193,3.139584917
2.867799072,6.54286623,-7.124698735,-7.306935709,10.20552015,7.411553302,3.046257667
2.877781982,6.521216124,-7.592229737,-7.360819859,10.57466885,7.993478224,3.947046135
2.887764893,6.06722148,-7.397827694,-7.17976362,10.30906689,9.042049417,5.557680396
2.897748047,5.212458754,-7.107243158,-6.570171002,9.678845607,9.921604399,6.330812519
2.907730957,4.00705216,-6.414494118,-5.771259927,8.628625379,10.33130501,6.433580779
2.917713867,1.958708302,-5.45207415,-4.440877292,7.031820793,10.36272648,6.425950983
2.927697998,-1.140452476,-4.23592609,-3.051821519,5.220793467,10.13615678,6.577553883
2.937681152,-4.788351298,-2.601599379,-1.437884978,2.972512832,9.951105436,6.737328868
2.947663818,-8.267154952,0.396202381,1.444030787,1.497398157,10.14793255,6.556913601
2.957646729,-8.824669592,5.588058491,5.719625017,7.996280888,10.65902387,6.041656968
2.967630127,-9.670883685,12.04879881,10.56502156,16.02476937,10.31282055,6.278855832
2.977613037,-9.520311431,16.71023463,12.81825641,21.06038078,9.17264045,6.172424623
2.987595947,-6.132745799,14.35706757,12.60400693,19.10461672,7.727500375,4.747188046
2.997579102,-4.440878461,8.172302247,11.08997599,13.77585175,6.474102794,2.85565117
3.007562012,-3.058140785,3.710236328,8.136862684,8.942840039,6.007687086,1.816957703
3.017545166,-2.192002387,1.216071488,4.608373501,4.766123812,6.485067585,2.855649511
3.027528076,-1.556324603,-1.034754551,3.207502203,3.370280012,7.438923682,3.614423497
3.037510986,-0.701297381,-2.86220671,4.027296783,4.94078401,7.955277822,3.355879854
3.047494873,0.12863544,-4.184844722,5.11437715,6.608311356,8.276580851,3.202174001
3.057478027,2.681262991,-3.85493706,2.387228899,4.534247628,8.723309303,3.249536617
3.067461182,3.450498181,-3.746161044,-2.708895386,4.622968395,9.446956575,3.034743892
3.077444092,1.039672134,-2.819264809,-5.977488017,6.608980032,9.947294756,2.57593948
3.087427002,1.883944592,0.835182996,-6.51734542,6.57064091,9.835639519,2.737361297
3.097410156,4.412713566,6.718153239,-6.155436354,9.111694664,9.412526477,3.444894148
3.107393066,0.671865388,12.11873101,-6.425162227,13.71664503,8.559767357,4.350304917
3.117376221,-9.641989015,13.60053375,-4.432774357,14.30468478,7.238016822,4.584338722
3.127358887,-3.957067647,7.312271225,-4.399636058,8.533821413,6.076449192,4.091758819
3.137342285,3.642844461,-1.465104701,-8.021106892,8.153814295,5.751596333,4.011942905
3.147325195,2.990955255,-5.61360619,-9.547578208,11.07559588,5.558248704,3.937411501
3.157308105,1.826550534,-7.115189733,-9.376776236,11.77072035,5.029831794,3.490746354
3.167291992,4.557686685,-7.04953565,-6.555201396,9.626350202,4.211751049,2.67944636
3.177275146,8.735527666,-4.618550612,-2.972499269,5.492427665,3.38523911,2.092144588
3.187258057,10.13619993,-1.909878513,-1.351174809,2.339510482,3.009672489,2.015872563
3.197240967,9.618841948,-0.426055083,-0.399567181,0.584103472,3.012135646,2.015067087
3.207224121,7.95540254,0.494964368,0.064425857,0.499139677,3.162247928,1.879985037
3.217207031,5.740179144,2.511100777,0.961841729,2.689008484,3.277717296,1.743366703
3.227189941,3.913187297,4.597190428,2.607711724,5.285292827,3.207959816,1.779116663
3.23717334,2.390419804,4.63230675,4.151426144,6.220338001,2.914221985,1.649669886
3.247156006,0.617038404,3.250717952,4.793063421,5.791426781,2.564909403,1.22875889
3.25713916,-1.390745918,0.775894356,3.505062423,3.589912902,2.276182378,0.630041695
3.26712207,-3.728323774,-0.989354152,0.93494795,1.361230806,2.146067146,0.45546635
3.277105225,-4.514982685,-1.589952147,-0.698850864,1.736761457,2.1840296,0.401037779
3.287088135,-2.684167188,-1.801107172,-1.531398251,2.364142054,2.132735464,0.479995377
3.297072021,0.203131878,-1.617770713,-1.315669634,2.085226286,2.029013319,0.528409061
3.307055176,1.896442108,-0.403790059,-1.603782519,1.65383336,2.021077962,0.528101056
3.317038086,3.316675402,-0.360361837,-1.958557496,1.991433684,2.110804993,0.534271139
3.327020996,4.287494949,-0.633549832,-2.26082224,2.34791452,2.189173406,0.567459464
3.33700415,4.383776225,-0.771837774,-2.61571266,2.727212179,2.22384532,0.586376359
3.346987061,1.840985594,-1.140155539,-2.670986803,2.904156531,2.212275036,0.577402704
3.356970215,0.29257191,-1.021785764,-2.048018279,2.288760586,2.162569502,0.535582827
3.366952881,-0.272092602,-1.195488719,-1.265458035,1.74085534,2.129049728,0.537123216
3.376936279,-0.351393444,-1.207273849,-0.200562923,1.223820098,2.109149715,0.554540882
3.386919189,-0.275695668,-0.67300506,1.143583175,1.326920604,2.210208406,0.469564497
3.3969021,-0.18503508,-0.380542455,1.9694448,2.005872723,2.383017632,0.428925997
3.40688501,-0.012076295,-0.329901816,2.529682728,2.551103666,2.501850845,0.470568616
3.416868164,-0.071323507,-0.175614926,2.769555606,2.77511781,2.504353311,0.470890316
3.426852051,-1.008396194,-0.349520125,2.671869432,2.694633663,2.485672739,0.463424527
3.436834961,-2.394690467,-0.783605954,2.491172965,2.61150934,2.552858882,0.532415862
3.446818115,-3.816808697,-1.018034887,2.18122468,2.407101189,2.780780401,0.881893429
3.456801025,-3.762679632,-0.608135405,1.856496467,1.953562848,3.238743529,1.524154013
3.466783936,-2.725142757,0.467925555,1.469136879,1.541855212,3.862950943,2.055558538
3.476767334,-1.547342839,1.141143381,1.921032652,2.234407005,4.508812245,2.23189168
3.48675,-0.538355182,1.359697284,2.735749783,3.055012861,5.017277058,2.235007516
3.496733154,-1.462840555,1.009780269,3.030394116,3.19420486,5.394053676,2.189573849
3.506716064,-3.423523665,0.887336377,2.41848533,2.576128323,5.743471071,2.087039865
3.516699219,-4.900093471,1.456819688,2.139400824,2.588312092,6.212234565,1.834098965
3.526682129,-5.043047943,2.041414058,2.676923208,3.366495094,6.714786486,1.412277065
3.536665039,-3.915275793,2.340762331,4.294184217,4.890724525,7.052960454,0.871304328
3.546647949,-2.198746893,2.138252384,6.651489102,6.986732465,7.12207894,0.709412834
3.556631348,-1.159056346,1.07629886,8.124656698,8.195636992,6.898673569,1.006444468
3.56661499,-1.440476748,0.325810163,7.993831347,8.000468228,6.555451434,1.087589197
3.5765979,-2.704825945,0.636921939,7.291289227,7.31905514,6.209390871,1.122739877
3.586581055,-4.058227928,1.54309921,6.645988167,6.822779044,5.836752773,1.297409276
3.596564209,-4.618094684,2.449601476,6.223653566,6.688378809,5.477193949,1.462102894
3.606546875,-4.370238699,3.44554202,6.394567766,7.263763262,5.300989637,1.410795704
3.616530273,-2.864557072,3.879453077,6.551356411,7.613831296,5.354250972,1.491628416
3.626513184,-1.916107324,3.034121027,6.027668052,6.748234774,5.533569651,1.823382007
3.636496094,-1.847157268,1.184305061,5.454826664,5.581909387,5.865156322,2.262698159
3.646479004,-1.895906102,-0.204337162,4.748284076,4.752678754,6.374552107,2.677048741
3.656462158,-2.430212885,0.052954761,4.763121287,4.763415645,6.929784673,2.85308692
3.666445068,-2.538507255,1.843053632,4.148916207,4.539862595,7.33533375,2.804139358
3.676428223,-1.039783778,2.719946357,2.347168399,3.592674168,7.606050452,2.647493885
3.686410889,0.476522155,3.163956199,0.635721331,3.227190797,7.770299851,2.435905452
3.696394043,2.411323475,4.702397939,-1.468413095,4.926335696,7.782794281,2.412781228
3.70637793,3.74892817,7.104936634,-3.209885298,7.796376608,7.49787502,2.860042702
3.716361328,4.259139792,8.434133566,-4.166218932,9.407018082,6.802560824,3.480789559
3.726343994,4.828941082,8.794353364,-4.893412678,10.06410149,5.930851609,3.796594497
3.736327148,4.903717799,9.077776338,-5.618551245,10.67586724,5.15213442,3.665306053
3.746310059,3.962293273,8.448091365,-5.901090422,10.30500441,4.395589771,3.198094073
3.756293213,2.071901989,6.943260218,-5.437301528,8.818906415,3.553460679,2.580205108
3.766276123,-0.103675479,5.710306569,-4.462268163,7.247029617,2.854335734,1.921986129
3.776259033,-1.843140288,4.263010496,-3.038704848,5.235168158,2.585121893,1.407539529
3.786241943,-2.587273916,2.867493126,-1.736171905,3.352135097,2.685403118,1.61343553
3.796225342,-2.18193239,1.884043814,-0.874586932,2.077143085,3.028620975,2.030031853
3.806208008,-0.29150472,0.709759212,-0.455287315,0.843234652,3.5649834,2.385270889
3.816190918,1.140502598,-0.106223994,0.681699531,0.689925929,4.222856693,2.450216524
3.826174316,2.402507132,-0.299682619,2.257121779,2.276929598,4.899387628,2.311392235
3.836157227,4.628815985,-0.723249977,3.025165568,3.11042075,5.493291187,2.324231633
3.846141113,5.355273818,-0.638486704,1.772205195,1.883713494,6.088866042,2.399183595
3.856124268,4.579149745,-0.250679811,-1.810383827,1.827656962,6.853927299,2.142323944
3.866107178,4.168314443,-1.950938837,-4.115929006,4.55489121,7.64158316,1.501740689
3.876090088,3.958189345,-3.454951069,-5.193814844,6.237980404,8.180593648,1.2419731
3.886072998,2.620288882,-3.199278856,-5.982601999,6.784313663,8.552625217,1.15876558
3.896056152,1.903980395,-3.679703243,-6.467209809,7.440767344,8.822472395,1.021639565
3.906039063,2.022759334,-4.32898782,-6.028720192,7.421967576,8.948789073,0.915579458
3.916022217,3.584599193,-4.954158531,-5.571072285,7.455235285,8.976926805,0.871486513
3.926004883,4.315410838,-5.921303773,-5.6956339,8.215965184,8.903636323,1.015324188
3.935988037,4.110632361,-6.350858388,-6.470086825,9.066169301,8.668322699,1.361202591
3.945971191,4.762139291,-6.525590686,-6.951261738,9.534326067,8.21148338,1.83512616
3.955954102,5.235424034,-6.667894878,-7.050601233,9.704215571,7.279502613,2.95283821
3.965937012,5.050928468,-6.885846724,-7.175518237,9.944996082,7.332937965,3.000680308
3.975920166,4.860802202,-6.941416636,-7.140335865,9.958296098,8.350889055,4.862920616
3.985903076,4.55503997,-6.625543345,-6.784201875,9.482785439,9.655195664,6.569021371
3.995887207,4.301451286,-6.138448394,-6.170730954,8.703934122,10.51077915,7.031730016
4.00587085,3.925597865,-5.36549243,-5.527478058,7.703344903,10.80150056,7.011085535
4.015854004,3.105061527,-4.631466792,-4.872293317,6.72233046,10.74088258,7.040170385
4.025836914,0.219803611,-3.249907804,-4.879637543,5.862828949,10.53628065,7.182281235
4.035819824,-4.624536116,-2.169372914,-3.940026788,4.49777611,10.38620086,7.29319275
4.045802979,-9.997413395,-0.015662849,0.213945825,0.214518393,10.43897217,7.25218891
4.055785889,-11.93612287,5.097216172,8.87956555,10.23856909,10.69217643,6.927734481
4.065769043,-9.62247066,13.31323189,15.0915088,20.12450698,9.749448433,7.539720582
4.075751953,-6.498115235,17.76270019,14.6133208,23.00136219,7.95764592,6.968664198
4.085734863,-5.122508434,12.9276719,12.58042615,18.03862031,5.948764908,4.943747065
4.095717773,-3.164704387,6.405805784,9.684235334,11.61114817,4.807341916,2.926939564
4.105700928,-1.533219037,2.452861939,6.659821462,7.09716518,4.834508789,2.990534039
4.115683838,-0.809837543,0.50108139,4.649387356,4.676311083,5.316216171,3.634769377
4.125666992,-0.872201352,-0.98096977,4.250295684,4.362031074,5.943412945,3.993649678
4.135649902,-0.888956087,-0.913172245,4.941827457,5.025489246,7.184824423,5.088503577
4.145633789,1.049806136,-0.06575579,2.745773749,2.746560996,8.439154765,5.88522989
4.155616699,2.749368851,0.164585582,-0.794419024,0.811289097,9.686183172,5.868048841
4.165600098,0.930429961,1.513838045,-1.605259022,2.206481849,10.68776462,5.068000322
4.175583008,3.445583521,2.755235697,-0.944264718,2.912552077,11.09802397,4.498932176
4.185565918,7.697258969,6.367565193,-1.826653117,6.624390395,11.26757492,4.20991798
4.195548828,4.111951335,11.20371577,-3.959556834,11.88281689,11.06102958,4.474976475
4.205531982,-5.937234333,10.61658224,-5.407150136,11.914239,10.29377146,4.905357651
4.215514893,-6.575062281,2.12841605,-10.7393973,10.94827882,9.45146741,5.264785456
4.225497803,-3.194499221,-5.568650027,-15.82495518,16.77614585,8.673025918,5.553498544
4.235480713,-4.190507278,-7.169864157,-16.03918713,17.56879267,7.345680985,5.018632967
4.245464111,-0.124061264,-7.88576494,-13.01411099,15.21684506,5.976545939,3.750175044
4.255446777,7.232195818,-5.783787984,-9.152811998,10.82710353,4.926908644,2.140451766
4.265429688,11.56866669,-1.865028148,-6.027113926,6.309075389,4.337342108,0.867592729
4.275413086,11.02504496,1.424578629,-4.382328949,4.608061555,4.255263067,0.69976704
4.285395996,8.695150063,2.780450802,-3.61289356,4.558936997,4.34954999,0.797629421
4.295379883,6.915179202,2.743173503,-3.19391353,4.210235683,4.389511702,0.816896606
4.305363037,5.428555327,2.494969142,-2.442047553,3.491198544,4.281489462,0.900594747
4.315345947,4.090282524,3.095302934,-0.655083619,3.163863903,4.131287721,1.118714489
4.325328857,2.779619028,3.269627819,1.256350599,3.502696519,4.005615587,1.279382628
4.335312012,0.543409543,2.922694204,2.548022103,3.877442204,3.866360576,1.396930754
4.345294922,-2.280577619,2.987357523,3.654935297,4.720472115,3.697936889,1.48424444
4.355277832,-4.139862255,1.28235101,4.7617915,4.931438168,3.45013597,1.499619578
4.365260986,-4.978296362,-0.974983681,5.40098869,5.488284979,3.140607844,1.481255697
4.375243896,-3.870098973,-2.657180396,4.873625443,5.550930788,2.678054448,1.395660121
4.385226807,-0.912595322,-3.541976442,3.470109767,4.958554115,2.156315773,1.183210459
4.395209961,2.491571317,-2.591523391,1.755274811,3.130013282,1.838267982,0.726557043
4.405192871,4.42966587,-1.765163752,0.917081527,1.989181138,1.795343514,0.658462427
4.415175781,3.876140007,-1.834777971,0.52036769,1.907142558,1.927020942,0.800419486
4.425158936,3.29173736,-2.066218829,-0.428319521,2.110146408,2.072564665,0.908587796
4.435141846,3.119137398,-1.96836402,-0.967312123,2.193205339,2.135566957,0.930586295
4.445124756,0.878309533,-1.911502315,-1.172518177,2.242462926,2.092387976,0.936906153
4.45510791,-0.642289092,-1.364621297,-1.228527942,1.836156907,1.95438622,1.003878621
4.46509082,-1.166615749,-0.624222616,-0.59555474,0.862751021,1.886113615,1.032407996
4.475074707,-0.963357541,-0.089754505,0.321240956,0.333544034,1.929787503,0.996817185
4.485058105,-1.767720451,-0.881567146,1.544148427,1.778076207,2.024550261,0.878598575
4.495041016,-2.45268892,-1.245643035,2.3963565,2.700768603,2.057103101,0.874886154
4.505023682,-3.19637729,-1.199260054,3.080765582,3.305955421,2.108691568,0.925088938
4.51500708,-3.892845643,-1.02702308,3.201900437,3.362579786,2.160266533,1.00161221
4.52498999,-2.969960398,-0.323517084,2.721004342,2.740169325,2.27585272,1.183811695
4.534972656,-2.165695833,0.322045258,1.731725009,1.761415526,2.542116408,1.512196614
4.544955811,-3.164568778,0.846316385,0.166013861,0.862445375,2.980490367,1.825323608
4.554938965,-2.74646027,1.05835813,-0.458563852,1.153430855,3.533066919,1.933677814
4.564921875,-1.885260497,1.292481943,-0.134775404,1.299489893,4.053174405,1.923118041
4.574904785,-2.252336006,1.269077102,0.175624643,1.281171615,4.545974822,1.78045486
4.584887695,-2.912418602,1.935443162,0.824143277,2.103604615,5.036560105,1.460395829
4.594871094,-2.440883624,2.881501193,1.429618523,3.216653268,5.46115307,1.124563966
4.604854004,-1.393711928,2.888429531,2.502479664,3.821705068,5.750958704,0.848287975
4.61483667,-0.334792219,2.390079027,3.834558289,4.518441659,5.960798382,0.553370381
4.624820068,0.206939308,2.122985257,4.968223881,5.402806209,6.138291325,0.278812127
4.634802979,-0.076049805,2.085710881,5.780375546,6.14515511,6.285014367,0.235923365
4.644785889,-1.23261375,2.149513783,6.015715164,6.388210895,6.407791292,0.39621259
4.654768799,-2.252409509,2.288124966,5.928256661,6.354505716,6.490704463,0.464336964
4.66475293,-2.797678124,2.122714623,5.854550789,6.227494063,6.491163961,0.464204211
4.67473584,-3.055955258,2.083226078,5.825756656,6.187024447,6.426307642,0.536231244
4.68471875,-3.737099493,2.349923542,5.898681607,6.349534263,6.269599593,0.763908283
4.694701904,-4.784509235,2.141531552,5.727435398,6.114709611,6.041918083,1.006829877
4.704684814,-5.078431392,1.41835464,5.747684405,5.92010185,6.00518493,1.010199286
4.714667969,-3.909937063,0.620132132,6.262743467,6.293371084,6.258347751,1.246693858
4.724651123,-2.404847119,-0.441807363,6.855815743,6.870036626,6.803328492,2.065297978
4.734633789,-1.873790131,-1.723213201,7.168720248,7.372924367,7.368936322,2.687029396
4.744616943,-1.742816312,-2.341292492,6.827033301,7.217342601,7.724962636,2.892016476
4.754599854,-1.798327186,-1.360689802,6.211818167,6.359100697,8.00797619,2.966024721
4.764583008,-1.903822866,0.095704354,5.578109929,5.578930875,8.326519386,2.94279704
4.774565918,-0.596224054,1.096409336,4.487958192,4.619943957,8.449637318,2.849547651
4.784548828,1.275218674,2.997110855,2.757601842,4.072719165,8.395927378,2.925281156
4.794531738,1.914220341,5.732047276,0.419510228,5.747378081,8.259222521,3.147613527
4.804515137,2.006380739,8.178309962,-2.132366541,8.451730054,7.975415624,3.472484077
4.814497803,3.603548224,10.83558856,-4.526837958,11.7431785,7.439373121,3.759464083
4.824480713,5.313419128,11.34579667,-5.308149663,12.52611492,6.535721543,3.701967682
4.834464111,4.655646709,9.478962937,-5.448288786,10.93318751,5.520086357,3.289390462
4.844446777,2.955205896,8.224623385,-5.771255251,10.04747814,4.636391469,2.877721299
4.854429932,0.282145282,7.378507492,-6.054397654,9.544532663,3.856568256,2.305431864
4.864414063,-3.390162078,4.777539396,-4.853114277,6.810110195,3.191781051,1.315265148
4.874396973,-4.18954194,2.419405075,-3.288783771,4.082844549,2.780017116,0.525426836
4.884379883,-2.546006087,1.40383687,-2.312984097,2.705670599,2.677758671,0.322078021
4.894362793,0.373281524,0.727776514,-2.816810402,2.90930911,2.808594811,0.514879489
4.904345947,3.167960174,0.179078802,-3.086113665,3.091305027,3.032613535,0.872859762
4.914328857,5.799692825,-0.527165679,-2.654829449,2.706662716,3.366822129,1.344013774
4.924312012,5.801344099,-1.18908645,-2.049841549,2.36976306,3.915115802,1.946300114
4.934294678,4.979084882,-1.548212608,-1.413242412,2.09623863,4.707814687,2.644509227
4.944277832,5.241606522,-2.248505487,0.057712184,2.249246012,5.650576224,3.173079887
4.954260986,4.718665183,-2.646968799,1.176519814,2.896660611,6.626389144,3.464131887
4.964243896,3.524624909,-2.639046774,0.533695958,2.692470845,7.522913938,3.542094279
4.974227051,1.676604302,-2.788063615,-1.261702482,3.060260099,8.348377756,3.271732647
4.984209961,0.123000064,-3.355773486,-2.202552422,4.014031996,8.993977953,2.761776863
4.994192871,-0.095094697,-4.505875834,-2.492868955,5.14949635,9.408832423,2.245983937
5.004175293,2.4682524,-5.578021666,-3.205338303,6.433390968,9.58683846,1.952752959
5.014158447,5.156191508,-6.762746999,-4.618960069,8.189599446,9.54139006,2.029401986
5.024141357,6.270704071,-8.200159391,-6.227398013,10.29675192,9.067874953,2.723344998
5.034124268,5.537601393,-8.61804578,-7.650392004,11.52385399,8.252011665,3.376701485
5.044107178,5.442597297,-8.637523803,-8.340877775,12.00737521,8.142696369,3.285473573
5.054090576,5.290036499,-8.459544486,-8.31510562,11.86190855,8.658660242,4.144680254
5.064073242,4.413839648,-8.047807267,-7.421050748,10.94710903,9.486053022,5.351660746
5.074057129,3.428170614,-7.041190431,-6.401631129,9.51626207,10.16981418,5.903055426
5.084040283,2.319566544,-5.947535362,-5.590570767,8.1625767,10.45301349,5.93276571
5.094023438,-0.310606018,-4.700069203,-5.091964827,6.929556718,10.27596021,6.024192762
5.104006104,-3.612814065,-3.691702308,-4.703048219,5.978906964,9.812856226,6.428106385
5.113989014,-7.994978179,-2.276614561,-2.598122351,3.454448379,9.419378216,6.762479253
5.123972412,-10.09634139,1.041122917,1.867516019,2.138119036,9.425284415,6.757290838
5.133955322,-8.593381294,6.824103677,7.888671183,10.43070103,9.636445377,6.556275645
5.143938232,-8.292913662,12.51819561,11.74738893,17.16701395,9.216402003,6.626117612
5.153921387,-7.320286773,15.24210385,13.15789403,20.13583634,8.499781618,6.093619319
5.163904297,-3.602661504,12.81758304,12.32906537,17.78472063,7.907835347,5.148782525
5.173887451,-1.009368473,8.43959417,9.014025458,12.34825513,7.495856807,4.460870856
5.183870117,0.799429692,4.214886224,4.805513445,6.392043911,7.276726444,4.266721953
5.193853271,-0.172554369,1.048083989,2.045653888,2.298516886,8.33254413,5.135128837
5.203836426,-2.28602361,-0.542598811,1.970797092,2.044126867,10.10953878,5.774432425
5.213819336,-1.075667869,-0.244395032,3.505000171,3.513510372,11.67977879,5.495970159
5.223802002,-0.994153661,2.353043136,3.53883902,4.249728651,12.54450231,4.776220278
5.2337854,-1.673155331,5.845270335,2.156164473,6.230267291,12.8201524,4.350082376
5.243768311,1.711844835,9.886499197,1.507758725,10.0008101,12.66797913,4.597524958
5.253750977,4.62388262,14.18052676,-1.008930082,14.21637363,12.14043208,5.143549662
5.263734375,1.338502959,12.92924075,-4.423255418,13.66493523,11.11838986,5.622618244
5.273717285,0.314106574,2.779406262,-9.769266318,10.15695149,10.13517688,5.941936792
5.283700195,0.95690325,-9.123194273,-14.28556301,16.95022077,9.524383605,6.215917401
5.29368457,-2.258857955,-12.66148647,-15.57016326,20.06846341,8.242068791,5.864476845
5.303667236,-1.325652391,-10.91439263,-13.99340026,17.74652691,6.6391796,4.427479225
5.313650146,5.166820454,-7.097573997,-9.874622882,12.16074561,5.138090947,2.556511403
5.323633301,10.9918675,-1.917866004,-6.738623196,7.006229556,4.088004862,1.308087823
5.333616455,12.14623978,2.028188666,-4.249323331,4.708534596,3.619190353,0.976199259
5.343599121,10.02620928,3.472871341,-3.204371796,4.72533956,3.397668311,0.954979376
5.353582275,7.583364878,3.267648628,-2.300021886,3.99595148,3.109503741,0.945599997
5.36356543,5.461619977,3.600530922,-1.31399191,3.832805455,2.883175296,0.976690208
5.37354834,3.818440682,4.033124466,-0.358412456,4.049018702,2.710327718,0.945794788
5.38353125,1.7463024,4.048247801,0.802756644,4.12707263,2.536283148,0.83735751
5.39351416,-0.13611542,3.60200041,1.828587154,4.039571504,2.366506851,0.648403288
5.403497314,-1.059701946,1.709200458,2.135968657,2.735640384,2.206985385,0.34010477
5.413480225,-1.284921737,-0.534721209,1.571397669,1.659884756,2.185390933,0.311506193
5.423463135,-0.589046016,-2.017244078,1.142034119,2.318084468,2.297685016,0.304143535
5.433446289,0.294704246,-2.44131997,0.506529718,2.49331417,2.332882374,0.324174319
5.443429443,0.450633644,-1.837568479,-0.150163673,1.843693858,2.216635563,0.435212027
5.453412109,0.625755817,-1.608037254,-0.645252837,1.732667029,2.179176492,0.479560472
5.463395264,1.589645273,-1.889355949,-0.926572994,2.104329683,2.275282773,0.476740259
5.473378418,2.283480355,-2.11151986,-0.933270153,2.308573,2.334960792,0.488804853
5.483361328,2.074061359,-2.185283015,-1.061170849,2.429309661,2.40624693,0.530003244
5.493344238,3.312796514,-2.315489942,-0.783190066,2.444356838,2.518203737,0.631566653
5.503327148,1.751627394,-2.291357372,-1.048116722,2.519695868,2.589322078,0.658705598
5.513310303,0.350177639,-2.478599022,-1.265173957,2.782825588,2.563451862,0.665972198
5.523293457,-0.316053251,-2.569941673,-0.724299486,2.670058042,2.582470569,0.674624917
5.5332771,0.227396551,-1.325198802,-0.122471949,1.330846063,2.720361028,0.806472406
5.543260254,0.578687119,-0.152388948,1.461178175,1.469103145,2.908630088,0.66798169
5.553243408,0.624676132,-0.198072257,2.686437763,2.693729844,3.064410778,0.46487326
5.563226318,-0.789247321,-0.420356579,2.66820068,2.701109868,3.159838029,0.476779052
5.573208984,-1.783212473,-0.913044234,2.880176374,3.021434381,3.282168971,0.49976865
5.583192383,-3.121190239,-1.506173209,3.213405581,3.548877733,3.415365337,0.583080056
5.593175293,-4.576609997,-1.265838266,2.890516859,3.155540243,3.601975309,0.838582956
5.603158203,-5.20721793,0.035519642,2.260714688,2.260993708,4.02258958,1.385609879
5.613141357,-4.517192178,2.464637717,1.662638028,2.973012662,4.769737258,2.07644819
5.623124268,-3.044544222,3.789276547,1.426703074,4.048962634,5.526981799,2.598324644
5.633107178,-1.556681161,2.818072969,1.544436012,3.213536658,6.117770487,2.854151084
5.643090332,-1.338316642,1.676381892,2.520303198,3.026910051,6.731782796,2.823616089
5.653073242,-2.014348941,1.505490487,3.32286315,3.648002347,7.313084849,2.589732851
5.663056152,-2.679602656,2.083233092,3.325839244,3.924419294,7.769933708,2.288304316
5.673039307,-3.253577433,2.689311565,3.4234015,4.353398043,8.117726497,1.910521053
5.683022217,-2.642572025,2.995010083,4.511307504,5.414977451,8.330439072,1.567121709
5.693005371,-1.322133569,3.096599988,6.678730745,7.361682949,8.350484279,1.530556983
5.702988281,-0.662658292,2.625159118,9.37174058,9.732470493,8.041823456,1.952039107
5.712971191,-1.083696569,1.905391723,10.37189319,10.54545807,7.370534364,2.365648379
5.722954346,-2.663286312,1.505806714,9.842326878,9.956849513,6.518832171,2.591656404
5.732937256,-4.381155229,1.505116978,9.231769799,9.353659751,5.834710787,2.494962758
5.742920166,-5.255706359,1.526349736,8.707159649,8.839930581,5.590358672,2.245547935
5.75290332,-5.433841743,1.511537951,8.076260039,8.21649093,5.784512955,2.577515297
5.76288623,-4.533660497,0.680840576,7.370970082,7.402347184,6.469454849,3.76794651
5.772869141,-3.53584773,-1.183176934,6.371599563,6.480523795,7.281362353,4.65241976
5.782852295,-3.403451183,-1.881691698,5.290773581,5.615429523,7.988569495,5.001356776
5.792835449,-2.472754388,-0.906959362,4.177761193,4.275074721,8.651641637,5.08167547
5.802819336,-0.696769966,0.065821841,3.018862083,3.019579572,9.325473034,4.900176318
5.812802246,1.135595099,1.009204515,1.759562279,2.028436138,9.882026072,4.447511797
5.8227854,1.660536672,3.056116586,-0.606083368,3.115635671,10.21421441,3.944079236
5.832768311,1.126785185,6.287224997,-2.867196773,6.910138603,10.17366172,4.018245211
5.842751465,2.193458139,9.671154903,-4.76538894,10.78147341,9.622754905,4.740630104
5.852734131,4.707108016,13.60615217,-6.469487106,15.06590988,8.6027496,5.428947701
5.862717285,6.45633361,14.10137081,-6.485822155,15.52142222,7.156460663,5.440959836
5.872700439,6.249305893,12.07589725,-6.151873109,13.55259521,5.666275426,4.965805862
5.882683105,4.787729951,10.50271503,-6.297713074,12.24615095,4.431288689,4.34821312
5.892666016,0.871434459,8.929889962,-6.446068236,11.01338869,3.475143927,3.491503023
5.902649414,-4.848299278,6.22410131,-5.913093579,8.585109946,2.835516327,2.495869738
5.912632324,-7.509307124,3.330551367,-4.187283932,5.350319535,2.573271795,1.957732496
5.922615234,-4.949834238,1.451759482,-2.288467642,2.710108806,2.756567696,2.270051969
5.932598389,-1.038175027,0.530906619,-1.296586456,1.401070404,3.293979789,2.775339011
5.942581299,1.080721937,-0.364830506,-0.452712204,0.581420362,4.027178658,3.124895809
5.952564453,2.359001752,-0.590564677,0.121930682,0.603020504,4.872537652,3.220381148
5.962547119,4.228179129,-0.594762129,0.173565007,0.619569852,5.822578538,3.222052483
5.972530273,5.155311802,-1.106933068,-0.470375871,1.202727848,6.8546441,3.037822239
5.982513428,5.518381729,-2.516804542,-0.934519569,2.684703322,7.847883223,2.622912669
5.992496338,5.64784982,-4.149841213,-2.023992968,4.617112694,8.662953315,2.10760934
6.002479004,4.848593877,-4.793266542,-3.546542727,5.962664627,9.226155612,1.655154106
6.012462646,3.496124206,-5.378302227,-4.761654722,7.183278537,9.564818617,1.249528497
6.022445557,2.047370921,-6.092395668,-5.313895513,8.084229741,9.679110449,1.065130937
6.032428467,1.679784978,-6.702963853,-5.597910023,8.733059089,9.595687421,1.209643783
6.042411865,3.108545569,-7.065288515,-5.631439368,9.035010302,9.305883718,1.648969232
6.052394531,4.750906241,-7.842059069,-6.370352778,10.10342937,8.820578779,2.258694291
6.062377441,5.458825378,-7.971451757,-7.492962723,10.94022548,7.952256818,3.108004581
6.072360596,5.873049153,-7.593991486,-8.14384246,11.13511907,7.436438651,2.995298127
6.08234375,6.588307547,-7.205218963,-8.092638927,10.83540424,7.644301991,3.301259685
6.092326416,6.4024857,-6.910549788,-7.568955245,10.24913566,8.525148156,4.847996038
6.102310547,5.442448244,-6.259565422,-6.944577146,9.349294679,9.530263122,6.00507966
6.112293701,4.099349043,-5.5663172,-6.192064834,8.326196855,10.13425905,6.2550518
6.122276611,2.584517311,-4.75912345,-5.469299426,7.249999463,10.28147222,6.228031579
6.132259521,0.379502006,-3.858925253,-4.37677716,5.835022058,10.07446725,6.358387904
6.142242676,-2.931103721,-2.609289349,-3.268089066,4.181960909,9.656770576,6.748402454
6.152225586,-6.656138974,-1.416329272,-0.104914957,1.420209757,9.329482246,7.077335457
6.16220874,-9.264034238,1.255711424,5.644042829,5.782043811,9.454290752,6.946551854
6.172191406,-9.088901543,8.278468373,10.29903955,13.21375247,9.105571155,7.204873339
6.182174561,-9.82668741,14.554899,13.19228496,19.6438659,7.902937651,7.419290597
6.192157715,-7.282105219,15.40661637,13.21884095,20.30028532,6.176495515,6.428936811
6.202140625,-3.5371895,10.93152731,10.83193647,15.38925394,4.667963169,4.381765572
6.212123291,-2.547224522,6.38306496,7.433957576,9.798328609,3.997916289,2.978758141
6.222106689,-3.295319895,3.802324245,3.517699494,5.179949748,4.206781355,3.418863642
6.2320896,-3.32344738,1.504195187,0.697527214,1.658055299,4.759865095,3.939318526
6.24207251,-2.238486198,-0.862444513,0.287422273,0.909077609,5.218350092,3.816522025
6.252055664,0.240238497,-2.614662274,0.532295443,2.66829482,6.158506163,3.797117847
6.262038574,1.697506513,-2.294839369,-0.006233634,2.294847835,7.254171721,4.1921644
6.272021729,1.500056187,-0.866733734,-0.811623549,1.187417429,8.365825237,4.203582347
6.282004639,1.104785827,0.944289852,-2.184049674,2.379444537,9.278266469,3.473225451
6.291987549,2.799917135,3.997740434,-3.348715969,5.214961862,9.510823834,3.056353657
6.301970703,5.243639489,7.953893889,-3.497221646,8.688785142,9.244116873,3.503278991
6.311953613,1.126234857,11.31870993,-3.631402153,11.88697927,8.637214194,4.032617771
6.321936279,-7.550177479,10.18478189,-3.315294761,10.71078715,7.718499741,4.229316732
6.331919678,-4.837242462,3.359710241,-5.26176902,6.242905264,6.97281582,4.292891728
6.341902588,3.018079116,-4.312853847,-9.365284535,10.31063833,6.737128913,4.390092821
6.351885498,4.633236724,-8.010610048,-11.02131571,13.6249504,6.145152485,4.265673817
6.361868652,3.816915665,-8.969280307,-9.970817649,13.41138299,5.194303887,3.479752851
6.371851563,5.280767735,-7.060338199,-7.515680751,10.31182974,4.224273879,2.15306229
6.381834717,7.281763858,-2.24565945,-4.134514464,4.705018196,3.496354227,0.736191085
6.391817627,8.571712483,1.006355555,-2.340727113,2.547892251,3.214108662,0.759381495
6.401800537,8.585551039,1.323227794,-2.261017909,2.619758344,3.037278603,1.045798382
6.411783691,7.721156562,1.926046388,-1.891944212,2.699834734,2.908889533,1.161575702
6.421766602,6.532430761,3.091580114,-1.015041697,3.253947948,2.812919742,1.213373731
6.431749512,5.111127208,3.869378258,0.35942894,3.886036189,2.723208187,1.210610848
6.441732666,2.906042929,3.939081324,1.939951872,4.390874052,2.577301336,1.147975942
6.451715576,-0.042768298,2.611867675,3.181733263,4.116464418,2.372712009,0.975953204
6.461698486,-2.816032988,0.457978746,3.682715284,3.711082914,2.189471233,0.784618509
6.471681885,-4.225406449,-1.209407354,2.781042631,3.032633222,2.0376293,0.600866907
6.481664551,-4.018647613,-1.375600956,1.285209614,1.882562546,1.93284651,0.50133558
6.491647461,-2.986428717,-0.768263423,0.132417808,0.779591664,1.9177437,0.50488521
6.501631836,-0.539962032,-1.320253747,-0.203647719,1.335867639,2.029883584,0.335891029
6.511614746,2.452858432,-1.627654393,-0.615481384,1.740136822,2.098018459,0.24501154
6.521597412,4.40751892,-2.022783592,-1.209547639,2.356832398,2.135986029,0.214076365
6.531580566,4.559072002,-2.114328488,-1.191548237,2.426967687,2.117440629,0.201823458
6.541563721,2.640598679,-2.051184342,-1.136475973,2.344980776,2.076958144,0.174417154
6.551546631,0.8402584,-2.193601346,-0.636418081,2.284056663,2.065640577,0.159710367
6.561529541,-0.205030387,-2.163817618,0.354495283,2.192663583,2.022227201,0.153315143
6.571512695,-0.449897183,-1.818946781,0.794282538,1.984805316,1.95005459,0.213971558
6.581495605,0.04706099,-1.531518078,0.807876179,1.731534448,1.934666809,0.216438003
6.59147876,0.397622221,-1.521198929,1.140052078,1.900990511,1.982312498,0.218905576
6.601461426,0.585015153,-1.633413688,1.183689852,2.017216384,2.019809763,0.233399553
6.61144458,0.475800818,-1.314969085,1.662666962,2.11981252,2.071133569,0.279134993
6.621427734,-0.453581899,-1.205368308,1.806092852,2.171378398,2.201631199,0.493850183
6.631410645,-1.479730023,-1.143604218,1.667702326,2.022142837,2.405442715,0.778079989
6.641393555,-2.46567349,-1.337449212,1.786668313,2.231805111,2.702005746,1.081485093
6.651376709,-2.866456769,-0.744185797,1.693635809,1.849922905,3.102770195,1.496074832
6.661359619,-2.85843859,0.47963762,1.390541189,1.470937471,3.697460486,1.982684176
6.671342529,-2.736042921,1.320526134,1.268269,1.830927505,4.450196233,2.382974939
6.681325684,-2.51293793,1.667015513,1.447855314,2.207991334,5.186909713,2.589206281
6.691308594,-2.188587756,1.417339326,1.780774432,2.275963168,5.866747179,2.610218256
6.701291748,-2.027135942,0.770640089,2.410251754,2.530454439,6.487936842,2.413506349
6.711274414,-1.893593733,0.608838,3.370236604,3.424788822,7.073497174,2.067909959
6.721257568,-2.108531784,1.434227332,3.957629081,4.209493554,7.538727261,1.682030052
6.731240723,-2.427633828,2.432335868,4.354494601,4.987773151,7.83191246,1.284787551
6.741223633,-2.530151515,3.148507285,5.38680176,6.239449601,7.974431454,1.01133391
6.751206299,-2.04963302,3.837569746,6.787013425,7.796825815,7.973330484,1.01322629
6.761189697,-1.615909741,4.29451155,7.907368869,8.998294943,7.763540638,1.223434224
6.771172607,-1.846381023,3.901903394,8.329435759,9.198062305,7.321729688,1.4705467
6.781155518,-2.770467753,3.56740139,8.269720418,9.006365997,6.700378185,1.81809863
6.791138672,-3.5122272,3.308473391,7.81650611,8.487859798,6.013611326,2.093554175
6.801121582,-4.050784626,3.733016315,7.509364407,8.386057751,5.456605884,2.102123906
6.811104736,-3.960605758,3.986259839,7.024892207,8.0770897,5.224409111,1.882483585
6.821087646,-3.814631938,3.300388284,6.332949807,7.141345537,5.395503367,2.187088974
6.831070557,-3.910241014,1.587374405,6.213399883,6.412963091,5.849076116,2.866817955
6.841053711,-3.478914128,-0.678183339,6.191407831,6.228439899,6.327859949,3.289636871
6.851036621,-3.093980745,-2.033648685,5.323724834,5.698927362,6.715746483,3.478316694
6.861019287,-2.998503771,-1.294661041,4.393398625,4.580185442,7.065697736,3.53400703
6.871002686,-1.923230162,0.486445546,2.944638033,2.984547271,7.407027335,3.441075546
6.880985596,0.271497558,1.788659779,1.172485737,2.138697409,7.683900013,3.175216439
6.890968506,2.034759276,2.831161583,-0.705770727,2.917805379,7.800126518,2.985729024
6.90095166,2.531913848,5.215230557,-3.094278267,6.064090018,7.746235895,3.076839002
6.91093457,2.551931385,8.11779558,-5.468726594,9.788032266,7.327921661,3.528335381
6.92091748,4.11045379,9.531809561,-6.745268041,11.67707303,6.478180278,3.84275666
6.930900635,5.832442417,9.089490741,-6.54515931,11.20080141,5.445365222,3.691632673
6.940883545,6.064383041,8.197081298,-5.913161383,10.10730525,4.443284991,3.336287944
6.950866699,5.140770651,7.22500386,-5.693032193,9.198439886,3.588780332,2.832412004
6.960849609,2.214332,5.92047609,-5.370633884,7.993481435,2.915965529,2.132639589
6.97083252,-2.869661702,4.24801634,-3.880015387,5.753274045,2.378389953,1.299977707
6.980815674,-6.709273183,2.933374588,-1.513825185,3.30096246,2.176494264,0.833096491
6.990798584,-4.978772747,2.146269102,-1.026006889,2.378899156,2.351206081,1.16691195
7.000781494,-0.137083681,0.919637057,-1.64080219,1.880947672,2.684346125,1.542392766
7.010765137,3.58419412,-0.157512283,-1.280970661,1.290618439,3.133843919,1.864177616
7.020747803,4.715717439,-1.014408513,-0.889138458,1.34892247,3.715305072,2.09153145
7.030730713,5.44100389,-1.104436575,0.415472898,1.179999101,4.390971839,2.299013237
7.040713867,4.593765714,-1.041850647,1.164130288,1.562258653,5.20601257,2.455593058
7.050697021,4.527325449,-1.972184455,1.487558525,2.470291863,6.073712386,2.546113665
7.060679688,4.191513824,-2.602285023,0.28390199,2.61772567,6.90477976,2.590247316
7.070662842,2.671079158,-2.952296731,-2.286715683,3.734317153,7.714740728,2.380970206
7.080645996,2.041734961,-3.511595916,-3.62654273,5.048080631,8.347628198,2.058061627
7.090628906,1.984352739,-4.044900829,-4.030669767,5.710299597,8.752568528,1.74332095
7.100611816,2.506900695,-4.743005843,-4.261023706,6.375925615,8.999308355,1.444228166
7.110594727,3.381098482,-5.491090986,-4.509125483,7.105229964,9.080878031,1.310610752
7.120578125,4.31562448,-6.184575939,-5.239428594,8.105590141,8.954457385,1.536575925
7.130560791,4.912508423,-6.987736488,-6.18288141,9.33040641,8.537606112,2.152359915
7.140543701,5.38513821,-7.277074239,-7.203233342,10.23925681,7.819744316,2.851725994
7.150526855,5.308188826,-7.225338207,-8.001481569,10.78096561,7.700299469,2.771777081
7.16051001,4.905333417,-6.937876187,-8.168668858,10.71733535,8.489750835,4.26097659
7.170492676,4.398502085,-6.50623249,-7.677028666,10.06319186,9.792709268,6.264194096
7.18047583,3.798370831,-6.030444531,-6.811604261,9.09748393,10.76628104,6.94963122
7.190458984,3.445832528,-5.743670493,-5.82108165,8.177697861,11.13408559,6.948907354
7.200441895,2.363962005,-5.356223082,-4.798990181,7.19162238,11.04189777,6.993488872
7.210424805,-0.446400828,-4.210785803,-4.048066015,5.841023501,10.64906463,7.302244789
7.220407715,-4.358701698,-2.954986116,-2.601660169,3.937077416,10.2907081,7.610817271
7.230390869,-7.335607677,-1.192214227,1.7913176,2.151788444,10.27632318,7.622938725
7.240374023,-9.31478652,4.928006437,7.584412342,9.044808346,10.68768453,7.276532077
7.250356689,-10.62313473,13.31459616,13.09561205,18.67547927,10.38847748,7.398429772
7.260340088,-9.282702114,18.57337477,14.79682209,23.74691968,8.919825354,7.057461946
7.270322998,-5.895576627,14.85623874,13.08774205,19.7989096,6.931821611,5.140482567
7.280305664,-2.698110957,8.22614548,9.774695942,12.77552935,5.591603446,2.846192803
7.290288818,-1.722993713,4.277780195,5.860675409,7.255819709,5.422762963,2.435467596
7.300271973,-2.450276452,1.138153551,3.058377809,3.263291027,6.176376437,3.715606862
7.310254883,-3.201518744,-1.342167473,1.815131898,2.257458158,7.125547783,4.047719871
7.320237793,-2.041128227,-3.380007179,1.721665387,3.793228208,7.589770219,3.715347296
7.330220703,-0.840724848,-5.506151777,2.989574322,6.265401984,8.577467668,3.883819264
7.340203857,0.392295437,-5.475529844,2.579575179,6.052737825,9.623351489,4.482477505
7.350187012,3.885810337,-3.881721607,-0.918707375,3.988957993,10.51407337,4.568613181
7.360169678,3.256453281,-0.906998525,-3.759006789,3.866882253,11.05811587,4.054156682
7.370153076,4.610658981,3.98861254,-5.00090976,6.396727947,11.18254296,3.845251204
7.380135986,8.180321887,10.09223804,-4.590322588,11.08712452,10.96558282,4.157675346
7.390118896,3.299372385,14.55030349,-2.662815187,14.79195445,10.19346293,4.739630456
7.400101807,-7.697339633,12.72988839,-0.8000506,12.75500449,9.130076216,4.781345947
7.410084961,-4.028404744,2.845352021,-6.285665493,6.899682516,8.343680073,4.767156373
7.420067871,-0.297911518,-6.254646085,-12.15540391,13.6702027,8.138437091,4.868022468
7.430051025,-2.733262935,-8.670497267,-14.30114285,16.72424019,7.203955218,4.606330503
7.440033691,-0.149258834,-7.539462608,-12.92117669,14.95995667,5.837152225,3.465101228
7.450016846,8.183478305,-4.128895455,-8.477351361,9.429383001,4.572435123,1.82400029
7.46,11.82556172,0.526997337,-5.083911869,5.111153107,3.861758735,0.984423216
7.469982666,10.25569725,2.182474972,-3.620138416,4.227126584,3.571016256,1.001681454
7.479965576,9.279462693,2.135627881,-2.60164351,3.365925638,3.327453063,1.103478293
7.489948975,7.524864759,3.907980668,-1.420343914,4.158087269,3.137394367,1.236180012
7.499931885,5.163550054,4.888595048,0.15472762,4.891043057,2.918736158,1.229665795
7.509914795,2.829457117,4.574374201,1.603421139,4.847252694,2.730187202,1.04320733
7.519897949,1.003164066,3.427701828,2.638144564,4.325383978,2.48994809,0.768447229
7.529880859,-0.422977064,0.98244861,2.893996517,3.056210254,2.232419719,0.491980968
7.539864014,-1.796824381,-1.100809032,2.034010066,2.312785652,2.137496745,0.408344605
7.54984668,-2.043577958,-2.007787098,1.167626022,2.322619116,2.142350793,0.410681256
7.559829834,-1.053161657,-2.169073054,0.389282153,2.20372832,2.133119308,0.407550964
7.569812988,-0.191591041,-1.790908435,-0.045826589,1.791494654,2.131039605,0.407238288
7.579795898,1.223289749,-1.450811972,-0.205820423,1.465338672,2.12730205,0.410495899
7.589778809,3.141078012,-1.694697301,-1.007389575,1.971505185,2.092928804,0.473970699
7.599761963,3.352957844,-2.09593826,-2.154157517,3.005553493,2.013098384,0.548990787
7.609744873,1.951139913,-1.566205945,-1.877324443,2.444861576,1.903734544,0.438129577
7.619727783,0.763131832,-1.228044834,-1.24689888,1.750100264,1.924878307,0.467829005
7.629710938,-0.90571433,-2.076243964,-0.358577584,2.106980513,2.010443685,0.504823716
7.639693848,-0.737342727,-2.318779632,0.446231025,2.361326133,2.021353927,0.507961382
7.649676758,-0.072880454,-1.966839002,1.051570954,2.230304269,2.103502101,0.612058706
7.659659668,1.351204181,-1.457025439,1.625504814,2.182931293,2.274743758,0.825806776
7.669642822,1.084584969,-0.853786574,1.532312736,1.754119105,2.431355836,0.934850275
7.679625977,-0.339589828,-0.445779774,1.029213722,1.121606211,2.657660507,1.014073765
7.689608887,-1.794490385,-0.558850273,1.031545892,1.173200986,2.945954153,0.943766524
7.699591797,-2.920199172,-0.876009512,1.699419507,1.911915094,3.243170958,0.794953866
7.709574951,-3.467453992,-0.860249048,2.51314485,2.656299205,3.504488545,0.742140445
7.719557861,-3.879297594,-0.485516741,2.560122582,2.605754045,3.763774972,0.846161648
7.729540771,-3.906511764,0.611060353,2.130171077,2.216082934,4.193973292,1.176973904
7.739523926,-3.369130396,2.560510997,1.890515641,3.182807873,4.852827131,1.638835466
7.749506836,-2.027075444,3.111780606,2.421129707,3.942720837,5.515642871,2.103776113
7.759489746,-1.231204175,1.713924564,3.334344622,3.749052076,6.142686883,2.447845785
7.769473145,-1.993949127,1.056468371,3.875757438,4.017165808,6.821612944,2.624921379
7.779455811,-2.889029835,1.618063558,3.663090546,4.004542674,7.503763581,2.692966184
7.789438721,-3.628856853,2.611319978,3.219486363,4.145369039,8.158042564,2.554576749
7.799421875,-3.911979382,3.050979808,3.341851344,4.52509096,8.711599764,2.200273594
7.809405029,-3.221010211,2.863131424,4.399567669,5.249163478,9.118571128,1.710045822
7.819387939,-1.557732131,2.546083828,6.421393229,6.907737246,9.351664449,1.268614607
7.82937085,-0.496027468,2.287824521,8.502188865,8.804621317,9.25627131,1.468859916
7.83935376,-1.798985358,1.99708801,9.605554596,9.810965275,8.731462839,2.260624764
7.849336914,-3.74670348,2.093440598,9.996307479,10.21316096,8.095624101,2.715927742
7.859319824,-4.696127188,2.779315076,10.16520742,10.53831268,7.736957624,2.648595723
7.869302734,-4.177485591,3.163542357,10.36671666,10.83867218,7.787355638,2.705602411
7.879286133,-3.317941476,2.559206344,10.23213985,10.54733251,8.146116046,3.266197913
7.889268799,-2.697406024,0.595542465,9.662605686,9.680941043,8.679595941,3.973846677
7.899251709,-2.336291908,-1.739474015,8.416941024,8.594804596,9.274647047,4.491094833
7.909234863,-2.73007729,-1.99231948,7.31358523,7.58009669,9.687291659,4.597971981
7.919218018,-2.728130832,0.210357738,5.950088554,5.953805856,9.920965189,4.544005373
7.929200928,-0.869947436,1.840457186,3.04329919,3.556536604,10.10274213,4.416230785
7.939183838,1.192493629,3.442570895,0.262678,3.452577892,10.28263482,4.176016974
7.949166748,2.465915482,5.974755962,-2.865788368,6.626496191,10.25402724,4.22341877
7.959150146,2.461231123,9.62473159,-5.412649318,11.04229282,9.824330071,4.755681091
7.969132813,3.453216793,12.4603747,-7.270248193,14.42627625,8.96092975,5.217515194
7.979115723,5.394420418,13.49131233,-8.380130758,15.88213146,7.758427023,5.205035248
7.989099121,6.283336758,12.69041446,-9.12664646,15.6314521,6.420048031,4.633414093
7.999082031,4.767898292,9.28066447,-8.7005452,12.72125072,5.153783953,3.545589997
8.009065186,2.729296369,5.904181958,-7.967696789,9.91683199,4.106572668,2.567410859
8.01904834,0.058216042,3.638311494,-6.867319134,7.771575298,3.31101,1.744427508
8.029031494,-2.156381331,2.399405074,-4.787885142,5.355463457,2.979271087,1.036338517
8.039014404,-4.041664916,2.135087783,-2.338404516,3.166502095,3.074088405,1.267090687
8.048997314,-3.851639772,2.320140983,-0.208878605,2.329524512,3.57220991,1.982601979
8.058980469,-1.765555382,2.373153611,0.409879024,2.408289617,4.165171047,2.37095097
8.068963379,0.785607941,2.154855144,1.059526297,2.40124898,4.822131395,2.682792896
8.078946533,3.473437743,1.426902104,2.050770792,2.498341541,5.561949495,2.922555364
8.088929199,4.983161338,0.553258736,2.916803977,2.968811323,6.397737965,3.115630714
8.098912354,5.546548085,-0.578432341,2.173485026,2.249137864,7.233423434,3.203354217
8.108895508,5.421233606,-1.851477762,-0.646804743,1.961205312,8.164959754,2.963989103
8.118878174,3.965547014,-2.745503408,-3.507418631,4.454186167,9.133551377,2.282750495
8.128861084,2.199252796,-3.879465352,-4.968458859,6.303636637,9.81745273,1.737812122
8.138844482,1.951081607,-5.287335423,-6.199143394,8.147717146,10.24134079,1.287707802
8.148827393,2.008171714,-5.695338717,-5.981341185,8.259135879,10.38484742,1.114738087
8.158810303,2.132976782,-6.178294083,-6.513927136,8.9778931,10.40789795,1.072112593
8.168793457,3.73196213,-6.698935913,-7.152138531,9.79942998,10.22537684,1.404016791
8.178776367,4.417249748,-7.49290544,-7.855826898,10.85622624,9.821805259,1.944451957
8.188759521,5.214132824,-7.758270779,-8.251057219,11.32566602,9.187549934,2.467638089
8.198742188,6.024101884,-8.109056978,-8.245051841,11.56450107,8.321130512,3.023304594
8.208725342,5.873623154,-8.39859522,-8.069636822,11.64712154,7.41064374,3.270344654
8.218709229,5.448077189,-8.343345042,-7.610844422,11.29319969,7.4766752,3.360636424
8.228691406,4.850176178,-8.04723502,-6.810776578,10.54251721,8.771542035,6.022273674
8.238675293,4.377398215,-7.566918186,-5.87975245,9.582783505,10.72406144,8.803095787
8.248657471,3.895225816,-6.867040317,-4.991769592,8.489641121,12.04725112,9.499037815
8.258640381,2.620790402,-5.66328529,-4.368988406,7.152682012,12.37286395,9.427042268
8.268623291,1.183738952,-4.773848141,-3.229671072,5.763714194,12.16163869,9.564305493
8.278606445,-1.011939785,-3.831938462,-2.38526549,4.513672987,11.9015072,9.767986405
8.288590332,-4.773462356,-2.30394622,-1.332390321,2.661471802,11.84191957,9.81457903
8.29857251,-9.486537172,1.888341219,1.576059523,2.459633343,11.82349062,9.831957605
8.308556641,-10.02629696,8.739277374,8.665911109,12.30743614,11.79267298,9.861697712
8.31853833,-9.722256145,18.37635582,15.81068349,24.24186803,10.83945912,10.22004271
8.328521484,-8.816776208,24.58861939,17.30511658,30.06771131,8.738028286,9.373628233
8.338504395,-5.483515582,17.87729337,14.17434369,22.8146803,6.646211272,6.165274067
8.348487061,-2.940423338,7.166162964,9.306406814,11.74576943,5.67349597,3.882208828
8.358471191,-3.270594034,1.274780282,4.876562665,5.040429366,5.538798418,3.687681592
8.368453369,-3.295915815,-2.240506305,2.23179313,3.16239926,5.958550567,3.842699489
8.378437256,-1.356890995,-3.760256204,1.099820313,3.917796759,7.005906279,4.333796853
8.388419434,1.71795455,-2.349144959,-0.78609777,2.477182219,8.030696508,4.680194585
8.39840332,-0.030134442,-0.723462158,-2.026171189,2.15145699,8.976916097,4.410500758
8.40838623,-0.89743107,-0.019753333,-2.775227222,2.775297521,9.441078975,3.880114952
8.418368408,4.399534936,1.809773878,-2.672425896,3.227559707,9.512166786,3.762055517
8.428352295,8.192021677,8.109486017,-4.236784168,9.149541166,9.500484941,3.781682366
8.438334473,3.145032887,12.23059915,-4.65787666,13.08752729,8.912379773,4.222169396
8.448318359,-2.415666473,9.13325974,-4.971768422,10.39879391,7.98526051,4.221486253
8.458301514,-0.573197947,-0.103375034,-9.237372441,9.237950856,7.340121517,4.295655486
8.468283447,0.258547768,-5.984551964,-12.25252807,13.63595638,6.795781611,4.365006411
8.478267334,-0.168550248,-6.946972516,-12.34530689,14.16569904,5.795213142,3.791489144
8.488250488,4.518998935,-5.8233683,-10.42291377,11.93937811,4.807251052,2.573046105
8.498233398,9.914527022,-2.449246671,-6.336182213,6.793085771,4.026580702,0.984835903
8.508215332,10.44948146,1.010980293,-3.336366191,3.486175628,3.682596644,0.362711684
8.518199219,9.28487069,1.807780659,-2.531529233,3.110741257,3.582651296,0.510611548
8.528181396,7.40338299,2.854655856,-1.591842783,3.268489483,3.470690295,0.692251823
8.538165527,5.564033473,3.814780991,-0.108886199,3.816334657,3.356840199,0.801193079
8.548147217,3.543212705,3.849776901,0.872476954,3.947403985,3.179902205,0.872393132
8.558131348,1.164597979,3.003485651,2.31898626,3.794551795,2.979727713,0.902457569
8.568113525,-1.125223196,0.523040124,3.592394962,3.630271688,2.836344339,0.87509676
8.578096436,-2.640086638,-2.128663887,3.72011504,4.286078144,2.704191607,0.844472678
8.588079346,-2.39580325,-3.030139264,2.810205597,4.132674613,2.44318352,0.707453702
8.598062256,-1.012818029,-2.904747629,1.675319231,3.353245191,2.148726287,0.534668639
8.608045654,0.422434006,-2.382346972,0.71288845,2.486722147,1.922559034,0.448764668
8.61802832,1.550214595,-1.989946906,0.068665503,1.991131246,1.795759831,0.450578741
8.62801123,1.9727152,-2.07105341,-0.497583026,2.12998852,1.787702621,0.447724438
8.637994385,1.825440819,-1.790258446,-0.992470822,2.046954723,1.81954824,0.481025027
8.647977539,2.265914303,-1.386318749,-1.365177469,1.945659065,1.87523633,0.533500901
8.657960205,2.297921553,-1.47371237,-1.844223845,2.360718056,1.934201434,0.569403311
8.667943359,0.742692344,-1.679719512,-1.58393274,2.30874437,1.902782224,0.553446475
8.677926514,-0.444018098,-1.292166301,-1.067367366,1.675997268,1.798933192,0.564842494
8.68790918,-0.400486342,-1.025999583,-0.599092559,1.188102284,1.750914861,0.592963101
8.697892334,-0.210127509,-1.089237837,-0.071356934,1.091572662,1.812673349,0.562508071
8.707875244,-0.362218936,-1.009677393,0.68253547,1.21873012,1.890241346,0.508623441
8.717858643,-0.585532017,-0.869083512,1.701449405,1.91055914,1.966497664,0.456748391
8.727841309,-1.435789467,-0.693208474,2.348263939,2.448444713,2.057172665,0.521988738
8.737824219,-2.335362664,-0.653466247,2.520504273,2.603835618,2.225467393,0.811836394
8.747807373,-2.826060461,-0.675376465,2.443698828,2.535310105,2.448004928,1.128355964
8.757790527,-2.975804448,-0.217929634,2.034889479,2.046525963,2.714395034,1.399419469
8.767773193,-2.716234643,0.212845463,1.252294748,1.27025404,3.132909815,1.725033418
8.777756348,-2.531090842,1.022393667,0.620227555,1.195813962,3.775697882,2.07358216
8.787739502,-1.864684449,1.77412798,0.336119084,1.805687162,4.519640475,2.332858149
8.797722412,-1.416159614,1.813141894,0.446260982,1.867252632,5.257960186,2.518082734
8.807705322,-2.207734501,1.696899194,1.02276893,1.981293305,6.013220238,2.520469884
8.817688232,-2.94373407,1.899409141,2.08073923,2.817309147,6.779488886,2.336278838
8.827671387,-2.776793449,2.712334128,3.116350982,4.131392001,7.425275359,2.023392243
8.837654541,-2.164926748,3.197718767,3.618822073,4.829210962,7.837039664,1.705126849
8.847637207,-2.302219104,2.733528308,4.422625888,5.199211167,8.052236531,1.424673355
8.857620361,-1.926918641,2.380412204,5.759114146,6.231673773,8.139987644,1.264232647
8.867603516,-1.231245238,2.263466325,7.357852826,7.69813471,8.005896142,1.507277781
8.877586182,-1.668024544,1.926923756,8.41750158,8.635239893,7.657098048,1.892490556
8.887569336,-2.253574023,2.076473097,8.951192862,9.188884273,7.159868973,2.198620056
8.89755249,-2.699841142,2.664180631,9.035251786,9.419853145,6.560444393,2.373865058
8.9075354,-2.435978755,3.684359544,8.912454258,9.643979788,6.006166395,2.287014973
8.917518311,-1.738195228,3.551984041,8.568095462,9.275173878,5.661642059,1.947326414
8.927501221,-1.741501283,2.92950856,7.711326657,8.249035048,5.639294767,1.906585816
8.937484375,-2.212415352,1.708985354,6.768769328,6.981179639,5.836741025,2.239754809
8.947467529,-2.553826405,0.441902056,6.060633333,6.076722293,6.119849393,2.527024936
8.957450195,-4.282580289,0.163165194,4.888036245,4.890758757,6.429390611,2.687284446
8.967433105,-5.21889434,0.995797336,4.090694612,4.210153767,6.756742138,2.679287577
8.977416504,-3.60347925,2.005316324,3.065273706,3.662949147,7.005463684,2.543336547
8.987399414,-1.505451324,2.848721205,1.44585698,3.194638463,7.162825306,2.374754281
8.997382324,0.379566303,3.84156846,-0.523496051,3.877073168,7.196213725,2.320454266
9.007365479,2.153847428,5.744996189,-2.327950196,6.19873643,7.049617475,2.559505668
9.017348145,3.294142083,8.097002383,-4.046213373,9.051700959,6.619726289,2.990969688
9.027331055,3.791028359,8.658065656,-5.436708823,10.22349763,5.921781567,3.152026875
9.037313965,4.459462458,7.613404627,-6.190038881,9.812263315,5.043625559,3.052955877
9.047297119,4.326502433,6.312095819,-6.654734952,9.17213448,4.135666851,2.842637573
9.057280273,2.880693384,5.255101379,-6.24814211,8.164274024,3.275475413,2.464812264
9.067262939,1.146581188,4.35390891,-5.089030527,6.697369223,2.550535565,1.927944424
9.07724585,-1.187057575,3.784718445,-3.619050037,5.23656537,2.066733009,1.345754983
9.087229248,-3.114450702,3.021491847,-1.822377339,3.528522659,1.818402246,0.889795599
9.097212158,-2.944046204,2.154648223,-1.082102432,2.411110665,1.897810177,1.058338807
9.107195068,-0.567728576,1.447881179,-1.230029871,1.899824569,2.190218588,1.479794547
9.117178223,2.495254973,1.140087734,-1.730443737,2.072253741,2.6382574,1.932931791
9.127161133,3.897850904,0.650364773,-1.286938045,1.44193754,3.159861046,2.365248281
9.137144287,4.590672425,0.034618309,-0.731857939,0.732676238,3.867625266,2.769657303
9.147126953,4.056192623,-0.258035435,-0.508496488,0.570220102,4.787056935,3.084550224
9.157110107,3.477279805,-0.914347134,-0.031089843,0.914875543,5.845018051,3.265805688
9.167093262,3.659455989,-1.830837709,-0.324333369,1.859343662,6.955681275,3.288797048
9.177076172,3.933335474,-2.072624604,-1.812361849,2.753257747,7.978023186,3.130883868
9.187058838,3.030999096,-2.543980134,-3.494717847,4.322601965,8.82433545,2.721225404
9.197042236,1.754884058,-3.325030558,-4.172346475,5.335194778,9.373140848,2.274775309
9.207025146,1.942972389,-4.55602489,-4.466514422,6.380212683,9.673710449,1.88687938
9.217007813,3.072178079,-5.505964146,-4.775304477,7.288290199,9.754851784,1.756442833
9.226991211,4.481214271,-6.713093618,-5.24572331,8.519579741,9.634305165,1.952062021
9.236974121,5.48952096,-7.677233249,-6.293272461,9.92699293,9.215837216,2.513869263
9.246957031,5.785366193,-8.176482747,-7.580492538,11.14983126,8.287941814,3.57053096
9.256939941,5.808371806,-8.821282872,-8.167105847,12.02150778,8.146159966,3.481103591
9.266923096,5.267553449,-8.815250022,-8.263444991,12.08276277,8.930380196,4.871483024
9.27690625,4.609811717,-8.200650974,-7.652222726,11.21638039,10.25445481,6.917939618
9.28688916,3.969107629,-7.396946235,-6.444699871,9.810655943,11.27657049,7.695893142
9.296871826,3.254783301,-6.652334905,-5.031590145,8.340890785,11.5471286,7.687155281
9.306855225,1.555884019,-5.950782966,-4.038275273,7.191626039,11.24945525,7.861212637
9.316838135,-1.585548213,-4.741238834,-3.810695767,6.082824008,10.62096351,8.39370629
9.326821045,-6.086905839,-3.477551023,-2.588049285,4.334900255,10.3362749,8.588809405
9.336804199,-10.83729186,-0.305469386,0.571526799,0.648038909,10.39201295,8.551409108
9.346787109,-11.34374851,5.847756306,7.779191402,9.732012777,10.63476388,8.302182382
9.35677002,-10.45955978,13.30691204,14.74764627,19.86371009,9.721384685,8.836497863
9.366753174,-8.306894257,18.93252606,16.81783458,25.3235089,8.210413791,8.245087926
9.376736084,-5.019482359,16.50436251,13.68115568,21.43753723,6.587493225,6.011649306
9.386719238,-2.844994878,8.694649712,9.003291298,12.51623697,5.920439222,4.509214362
9.396702148,-1.050100589,3.615622108,3.962506916,5.364157369,6.202280591,4.976531172
9.406684814,-0.277980929,-0.079648706,0.903203516,0.906708613,6.871649679,5.260829757
9.416668213,-1.131240118,-3.082801764,0.98368049,3.235937889,8.304685238,5.390983459
9.426651123,-0.51455082,-3.810666541,3.068098993,4.892280748,9.603376701,5.574640838
9.436634033,4.286175683,-2.410203531,1.91047531,3.075548239,10.44200362,5.43181118
9.446617188,4.654057978,0.597048194,-0.03743775,0.598220804,10.94355428,4.937534727
9.456600098,7.841646397,4.391674285,-1.820363662,4.754001145,11.32266606,4.222405155
9.466583008,10.98435522,8.236478658,-3.855745162,9.094303241,11.17261677,4.472424997
9.476566162,1.070445458,13.40032214,-6.204480079,14.76699721,10.54963066,5.107358559
9.486549072,-13.53806122,13.64910284,-6.989528048,15.33465066,9.471658833,5.239362193
9.496531982,-5.727367593,2.571096689,-11.78054184,12.05784824,8.483201882,4.96525029
9.506515137,-0.184337453,-6.656310823,-13.70626324,15.23706421,7.867192545,4.864656915
9.516498291,1.088418337,-8.641679169,-13.72961489,16.22285252,6.87629343,4.230392156
9.526481201,5.067970788,-6.929080886,-11.32730006,13.27854994,5.621654747,2.934309569
9.536464111,9.583703999,-4.285999157,-6.862607303,8.0910548,4.540522148,1.604233121
9.546447021,10.33318966,-1.211457272,-4.21884636,4.389338598,3.909777218,1.294277974
9.55643042,9.040258801,0.393635161,-3.229607944,3.253508277,3.590915593,1.511417432
9.566413086,7.397894914,1.958288616,-2.090486717,2.864442182,3.349027482,1.724587201
9.576395996,5.832030914,3.985789299,-0.108980307,3.987278902,3.185909632,1.836234444
9.58637915,4.627431837,5.277006921,1.362564656,5.450081145,3.002810253,1.838484415
9.596362061,3.21725875,5.439598699,2.279096002,5.897754878,2.727182964,1.647631416
9.606344971,1.246461366,4.29642469,3.151047033,5.328073059,2.439514128,1.27879633
9.616328125,-1.360553024,1.669179413,3.275704509,3.676465686,2.245896532,0.924206872
9.626311279,-3.938887847,-0.76315704,2.346227903,2.467223954,2.148798542,0.813141894
9.636293945,-4.78851321,-1.449468156,1.039370302,1.783605494,2.125880209,0.807051071
9.6462771,-2.644325006,-1.163166996,0.297954188,1.200722349,2.182244584,0.800836884
9.65626001,0.366166176,-0.833683698,0.039673766,0.834627171,2.301039846,0.731539583
9.666243164,3.062321871,-1.222673078,-0.161275727,1.233263685,2.477379728,0.545745244
9.676226074,4.681302544,-2.146296574,-0.207307666,2.156285105,2.651949902,0.37113269
9.686208984,3.184221573,-2.609200502,-0.669832567,2.693808257,2.731479191,0.340329115
9.696192139,1.402622234,-2.900537902,-0.844821178,3.021066524,2.703464718,0.353550372
9.706175293,0.271568797,-3.273327843,-0.888982975,3.391897094,2.596784542,0.399574989
9.716157959,-0.885985547,-2.610831318,-0.709375181,2.705485782,2.457889066,0.33528
9.726141113,-0.977026001,-2.238033778,-0.005538345,2.238040631,2.44746481,0.328981217
9.736124268,-0.289341843,-2.229513787,0.734062171,2.34724924,2.473926075,0.321632042
9.746107178,0.721278969,-1.90849378,1.43646079,2.38867497,2.452668708,0.336005481
9.756090088,0.589599193,-2.076561944,1.561290993,2.598025995,2.393753774,0.389459602
9.766072998,-1.219658699,-2.233445281,1.971283122,2.978965419,2.358493331,0.385308984
9.776056152,-2.6966403,-2.011962923,2.159587433,2.951577999,2.34638877,0.367097551
9.786039063,-2.761040584,-1.176248596,2.107655294,2.413663522,2.347641822,0.369176666
9.796020996,-2.404168781,0.003023147,1.954262429,1.954264767,2.51257238,0.634734749
9.80600415,-2.094854995,0.997184991,1.737066516,2.002942333,2.960267554,1.306469928
9.815987061,-1.601758612,1.75315475,1.921695792,2.601243221,3.566389135,1.962855843
9.825970215,-1.368008162,1.459898949,2.03272441,2.502653285,4.130500755,2.372319601
9.835953125,-1.3095814,0.849099293,1.958537768,2.134675572,4.67317956,2.551784909
9.845936035,-0.937853682,1.118655654,1.409575122,1.799525631,5.211584013,2.527258735
9.855919189,-1.279478669,2.108326617,0.772578071,2.245421564,5.822929643,2.36195556
9.8659021,-1.917296096,2.790270185,0.618140666,2.857919801,6.431626352,2.134995182
9.87588501,-2.034668968,2.752075187,1.100918484,2.964108524,6.945753243,1.806229579
9.885868408,-1.023447852,2.748700158,2.992050357,4.062969098,7.437347941,1.23399455
9.895851074,0.076474314,2.836388963,5.77195317,6.431216505,7.836827416,0.512842111
9.905833984,-0.458897176,2.437123687,7.687071921,8.064158145,7.953331706,0.240097637
9.915817139,-2.550630824,1.796763006,8.04413647,8.242359422,7.887950643,0.285704612
9.925800293,-4.298104021,1.672214251,7.751112139,7.929441336,7.724175167,0.454908618
9.935782959,-4.85548656,1.882171006,7.279325818,7.518720107,7.431531187,0.926048878
9.945766113,-4.927407302,2.584680393,7.478951149,7.91298193,7.109008882,1.318147
9.955749023,-4.36543159,3.274170139,7.662147908,8.332388653,6.949108002,1.307866255
9.965732178,-3.389797921,2.712283275,7.525326531,7.999188706,7.137057433,1.59637485
9.975715088,-2.896096997,1.105696804,7.802096477,7.880055511,7.609486349,2.317694085
9.985697998,-2.380598667,-0.150092362,8.056365837,8.057763847,8.085157963,2.768660573
9.995681396,-2.470873396,0.08584873,7.595774278,7.596259401,8.452751376,2.976821431
10.00566406,-2.159485726,1.290581078,7.29709879,7.410347514,8.8821261,3.128133262
10.01564722,-0.850231512,1.697194963,6.382815369,6.604604665,9.23421009,3.140781204
10.02563037,0.004554558,2.263402612,4.461729818,5.003001535,9.391517743,3.043008994
10.03561353,0.713849696,3.93878731,1.708821687,4.293497063,9.350648481,3.103811728
10.04559619,0.923069954,5.997316753,-1.974448892,6.313973129,9.170040707,3.428402177
10.05557935,1.249905369,8.796648782,-5.186667894,10.21188296,8.708838774,4.037666932
10.06556226,2.654922973,10.88721353,-6.584487112,12.72347787,7.826322579,4.54525534
10.07554541,5.062368145,10.54510456,-6.963387645,12.63677165,6.622159592,4.681396833
10.08552832,5.825011975,9.253784647,-7.214370238,11.73369798,5.463103833,4.479244033
10.09551123,4.9026528,8.914368568,-7.868055096,11.89000664,4.491164963,4.046769728
10.10549438,1.720812423,8.043774066,-7.401929284,10.93118742,3.584083634,3.218510802
10.11547754,-1.649586239,5.770581297,-5.794381859,8.177681189,2.733818771,2.090788472
10.12546021,-4.261825086,3.253620103,-3.243706319,4.594308921,2.236266509,1.087294162
10.13544336,-3.60930518,1.781784048,-1.735655626,2.487419314,2.219514076,1.051536254
10.14542651,0.045361383,0.855422651,-1.471359524,1.701953807,2.563220238,1.533980179
10.15540942,3.556032439,0.495078935,-1.295334702,1.386721004,3.072624682,1.95219499
10.16539233,5.725388402,-0.612752543,0.29908363,0.681848002,3.710952907,2.307793705
10.17537524,6.267635331,-0.465772761,0.936813525,1.046214053,4.608701634,2.672215677
10.1853584,7.446683202,-1.611485933,1.208534224,2.014309282,5.631371423,3.044161832
10.19534155,6.408419766,-2.582038354,1.131781386,2.819193354,6.673240384,3.391066218
10.20532422,4.254616762,-2.406922026,-0.323306364,2.428538787,7.682362113,3.589688687
10.21530737,3.067984719,-2.478044895,-2.028081114,3.20215857,8.713164725,3.408451478
10.22529053,0.491405799,-3.465743681,-2.754095587,4.426784585,9.566549883,2.960728932
10.23527319,-0.066497402,-4.915038234,-3.30785029,5.924480938,10.13349524,2.414710543
10.2452561,1.665859329,-5.79617225,-3.548236086,6.79599824,10.39367978,2.061516452
10.2552395,4.926311908,-6.389044035,-4.421885007,7.770003262,10.40371843,2.044144146
10.26522241,6.029779345,-7.616413746,-5.940791148,9.659335268,10.10862051,2.552778497
10.27520532,5.850017822,-8.442127488,-7.47054397,11.27291195,9.407178985,3.402227896
10.28518823,6.058869831,-8.910560407,-8.670719386,12.43299889,8.629777829,3.756791418
10.29517139,5.738299322,-8.830364004,-9.418246895,12.91041064,8.491040281,3.637501284
10.30515454,4.988287595,-8.565086928,-9.426524894,12.73656491,9.121503548,4.730884941
10.31513721,4.192753595,-8.050520033,-8.539500067,11.73601015,10.32685213,6.646192697
10.32512036,3.454887941,-7.020942592,-7.255369772,10.09623818,11.42204311,7.619282192
10.33510352,2.473578856,-5.792835799,-6.256300282,8.526326279,11.80393155,7.638939127
10.34508643,0.219715056,-4.620573642,-5.119611543,6.896384787,11.63960529,7.724869728
10.35506909,-3.024489276,-3.394724272,-3.420356726,4.819024072,11.34575327,7.952255226
10.36505249,-7.970517107,-2.3860657,-1.141180205,2.644919996,11.30574598,7.985925235
10.3750354,-10.16219479,0.363228917,3.479995494,3.498900382,11.43017686,7.858689515
10.38501831,-7.777468231,6.193401635,9.145904702,11.04562342,11.27302592,8.029575565
10.39500024,-8.589552676,13.79990131,13.37088679,19.21504331,10.44471679,8.427672692
10.40498438,-5.170860669,18.97705494,15.95048593,24.79005074,9.046881287,8.005761445
10.41496655,-0.528355181,17.54792347,14.38096283,22.68791991,7.425440975,6.058103277
10.42494922,-1.193767302,9.912054494,9.766361244,13.91512257,6.552331553,4.112160934
10.43493237,-2.637296131,4.0272395,5.581926857,6.883063666,6.530902478,4.074118899
10.44491553,-2.743591436,0.721761784,3.891497443,3.957864629,6.829407472,4.196502786
10.45489819,-0.939099882,-1.880771661,3.998728276,4.418951218,7.78702753,4.51267849
10.46488135,2.210434992,-2.03707223,3.313070655,3.889228771,8.851043548,4.835913941
10.4748645,3.961010247,-1.915122259,0.217123871,1.927390993,9.813244732,4.708504604
10.48484741,2.282629291,0.249692554,-2.751224708,2.762532129,10.48926076,3.952349627
10.49483032,5.126802916,2.861984007,-4.385424869,5.236688242,10.6887512,3.591158387
10.50481323,7.974709298,6.513094193,-5.578650027,8.575647619,10.55578222,3.808602866
10.51479639,2.275311661,11.63080136,-7.714754878,13.95682568,10.05667061,4.327133425
10.52477954,-6.079891576,11.55043428,-7.368871064,13.70083183,8.993159659,4.539589008
10.53476221,-2.53900293,2.582360425,-9.524236495,9.868113608,7.992191205,4.494535161
10.54474512,0.267615164,-5.995573124,-12.13359073,13.53406521,7.463824699,4.553134926
10.55472852,-1.219422406,-7.694134699,-12.94515845,15.0591114,6.604631401,4.116301234
10.56471143,1.666518085,-7.817365358,-11.02009172,13.51124061,5.605519664,3.005663624
10.57469434,8.329775951,-5.587248344,-6.652533643,8.68755132,4.687351622,1.450429647
10.58467749,10.85512328,-1.822233547,-4.394617937,4.757436486,4.183381155,0.598044503
10.5946604,9.168284876,0.268203193,-3.89778193,3.906998455,4.032500761,0.62395022
10.60464355,6.59159256,1.492235869,-3.25915611,3.58453155,3.91658106,0.734402241
10.61462622,4.7992047,2.649268308,-2.003790284,3.321716133,3.79455576,0.868559208
10.62460938,3.647111471,3.676013156,-0.333909445,3.69114728,3.715320797,0.941185195
10.63459253,2.405724925,4.461078076,1.056385807,4.584448557,3.656776109,0.958909462
10.6445752,0.725818366,4.539530266,1.953800364,4.942132222,3.531891077,0.910037907
10.65455811,-1.247865972,4.032449344,3.069839699,5.06799403,3.368341563,0.779497579
10.6645415,-2.265454284,1.874705493,3.902636384,4.329560189,3.181722777,0.535426425
10.67452441,-2.821973484,-0.64531392,3.590314064,3.647846643,3.055378793,0.374569051
10.68450708,-2.536988667,-2.215800903,2.3756767,3.248632547,2.849078285,0.528098696
10.69449048,-0.77548636,-2.604680978,0.875242692,2.747801443,2.63607246,0.719038799
10.70447339,2.16036134,-2.360496959,-0.133668173,2.364278553,2.471156048,0.851435092
10.7144563,4.284609749,-2.428248307,-0.708029027,2.52936651,2.355884761,0.932292204
10.72443921,3.753197518,-2.90433028,-1.100109359,3.1057004,2.294827767,0.938901387
10.73442236,2.258377478,-2.962000963,-1.533872825,3.335598229,2.212249557,0.899437291
10.74440552,2.587996386,-2.39139654,-2.283653081,3.306637084,2.111382427,0.820936738
10.75438843,0.915197613,-2.134291079,-2.386705751,3.201806171,1.983428253,0.717921945
10.76437109,-0.288220803,-2.125795054,-2.209545058,3.066120345,1.925151323,0.635587189
10.77435449,0.234335995,-1.118096851,-1.123201773,1.584841567,1.946943484,0.67673741
10.7843374,0.977393007,-1.115583992,-0.08173629,1.1185743,2.055527613,0.696743207
10.79432031,1.085938795,-0.91595983,0.606647797,1.098637319,2.214737341,0.644388524
10.80430347,-0.295711962,-0.396682273,1.144785829,1.211565689,2.539745614,0.800266509
10.81428638,-1.75792854,-0.267386616,1.900074912,1.918796569,2.990511725,1.127714623
10.82426929,-2.453024436,-0.159645203,2.274322066,2.279918299,3.505871375,1.599206957
10.8342522,-2.621289583,0.027283144,2.326766977,2.32692693,4.143028226,2.156138622
10.84423535,-2.499035661,0.991961704,1.767803015,2.027095341,4.951678012,2.756262725
10.85421826,-2.830551927,2.40492939,1.037144515,2.619036868,5.880972083,3.15177359
10.86420142,-2.759166314,3.243774416,0.512697886,3.284041959,6.705489217,3.266969598
10.87418408,-2.14477331,2.487523502,0.971994728,2.670682858,7.350660894,3.162983885
10.88416748,-1.438379922,0.930443113,2.545980368,2.710671581,7.944766854,2.760492419
10.89414941,-1.914288292,0.597473141,4.307480921,4.348720046,8.42341544,2.161405564
10.90413232,-2.909710219,1.431204185,5.537256525,5.719226805,8.629556152,1.836899217
10.91411523,-3.050399962,3.166896344,6.323726051,7.072393062,8.644780437,1.813193143
10.92409839,-2.635334475,4.358156631,7.473599851,8.651486806,8.560368726,1.901907785
10.93408154,-2.086453369,4.633109883,9.325969593,10.4134248,8.347297206,1.996752148
10.94406421,-1.188825315,4.273581574,10.48235263,11.32003605,7.889454846,1.99541332
10.95404712,-1.757408316,3.194876238,10.38382328,10.86420821,7.190615762,1.892672834
10.96403052,-3.56573901,2.720940629,9.347806162,9.735758725,6.445586418,1.761806067
10.97401343,-4.815211832,2.824291113,8.135446388,8.611742461,5.790415286,1.629709084
10.98399609,-4.233710752,2.665962253,7.007140277,7.497157434,5.431955352,1.337807128
10.99397949,-3.009602672,2.146582406,6.040026014,6.410127165,5.549129831,1.548313467
11.0039624,-2.510035194,0.594768558,5.841267529,5.871469661,6.0664385,2.386745
11.01394531,-2.243724683,-1.498246508,6.045384911,6.228275951,6.66956566,2.955542426
11.02392822,-2.096210063,-3.280973974,5.635217133,6.520771607,7.095587532,3.161120784
11.03391138,-2.532976509,-2.135522667,5.430173284,5.835001196,7.374228944,3.220422162
11.04389453,-2.006925513,0.309326061,4.320586487,4.331645207,7.641350393,3.192331785
11.0538772,-0.861744255,1.782736234,2.911471384,3.413914776,8.012692985,2.99565871
11.06386011,0.965554174,3.078369334,0.81351097,3.184047402,8.294868324,2.663691762
11.07384351,0.948542249,4.813828853,-1.448868436,5.027143123,8.357447909,2.547711432
11.08382642,0.734325571,7.833270198,-3.713454413,8.668902219,8.079105339,3.006997837
11.09380908,3.017677258,10.12769163,-5.621450473,11.58321386,7.361303715,3.582244299
11.10379248,6.071214349,10.06500634,-6.35380964,11.90274126,6.333637875,3.695933206
11.11377539,6.955991689,8.447142685,-6.217258312,10.48849467,5.249095516,3.488001488
11.1237583,6.248841783,7.071770278,-6.050931439,9.307185726,4.246946092,3.271630159
11.13374121,3.595465455,6.197721837,-5.82614361,8.506215688,3.483924309,2.867270119
11.14372437,-0.597453998,5.637790783,-5.739205915,8.045071128,2.953494991,2.329269007
11.15370728,-4.250429247,4.3100195,-4.506360987,6.235668163,2.619734739,1.740495845
11.16369043,-4.577854444,2.578167065,-2.804988447,3.809843252,2.566185374,1.633362091
11.1736731,-2.604358322,1.397102009,-1.755669071,2.243717431,2.831211363,1.98977989
11.18365649,-0.068384239,0.915793241,-1.176462385,1.490885979,3.336894633,2.380439548
11.1936394,2.627536369,1.026285998,-0.808593972,1.306555457,3.959482679,2.618478464
11.20362231,4.804435587,0.922977599,-0.515783869,1.057317667,4.681485699,2.777981603
11.21360547,5.516431764,0.006723171,-0.466952034,0.467000431,5.581165913,2.912184341
11.22358838,5.577103382,-1.330748253,-1.020455977,1.676967893,6.653594685,2.804031465
11.23357129,4.863297526,-2.25282978,-2.27531663,3.201922514,7.655639381,2.631697104
11.2435542,3.938008142,-2.617153506,-3.912897666,4.7074686,8.484186033,2.392490594
11.25353735,2.736554962,-3.010649551,-4.840245736,5.700174515,9.089261872,2.10918497
11.26352026,1.48555303,-3.721049399,-5.280788194,6.460103139,9.493013184,1.783003198
11.27350342,1.657499496,-4.820023616,-5.483192926,7.300550139,9.700751166,1.519011125
11.28348633,2.62536487,-5.34156035,-5.56922052,7.716766432,9.706961372,1.509281424
11.29346851,3.526550324,-6.330419996,-5.712131446,8.526585658,9.525834731,1.814978457
11.30345142,4.095367572,-7.502934082,-6.692630675,10.05411981,9.052369414,2.501577706
11.31343433,4.611905182,-7.977136817,-7.849217709,11.19128815,8.225700215,3.27903893
11.32341724,4.871102939,-8.203568322,-8.338523905,11.69741485,7.704702176,3.17882304
11.33340039,4.997931037,-8.173226376,-8.072080123,11.48738904,7.876978539,3.427495917
11.34338354,4.716175412,-7.873796854,-7.330946115,10.75822698,8.711486098,4.903180982
11.35336621,4.130931637,-7.360366855,-6.375543917,9.737687635,9.763749284,6.18982425
11.36334937,3.339957785,-6.617334904,-5.394394699,8.537482966,10.48439091,6.553646404
11.37333252,2.468542031,-6.034321665,-4.218484249,7.362652193,10.72785439,6.521943684
11.38331543,0.876922243,-5.019119371,-3.111811585,5.90550003,10.59996583,6.598764313
11.3932981,-1.923751555,-3.215966372,-2.009057557,3.791932485,10.2543098,6.918405459
11.40328149,-5.761973627,-1.487469093,0.991127591,1.787427818,10.06933384,7.110769852
11.4132644,-8.602025204,2.483797175,5.441212564,5.981307765,10.1179524,7.055424381
11.42324731,-8.56035347,9.01790493,9.938741426,13.42017848,9.673970409,7.431438936
11.43323022,-8.4105031,15.20683731,12.73101535,19.83246462,8.491554059,7.677897181
11.44321338,-7.537136211,16.61389022,13.2986317,21.28085885,6.6789047,6.885288368
11.45319629,-5.336862547,12.53903148,11.39628651,16.94410388,4.904577246,4.891220796
11.46317944,-3.873620718,7.636727051,7.878309948,10.97211774,3.977813739,3.055890769
11.47316235,-3.747061207,3.78278134,4.764743628,6.083766638,4.073132538,3.279270767
11.48314551,-3.460542313,0.832079185,2.303247716,2.448939732,4.524133882,3.794447792
11.49312842,-2.13044814,-1.479419058,1.2583143,1.942172914,5.049076188,3.833953502
11.50311108,0.970534593,-2.232309555,0.431406673,2.27361335,6.2190176,4.443903243
11.51309448,2.278306459,-1.348111476,-0.747516111,1.541487881,7.650958242,5.186828767
11.52307739,1.41805595,-0.340206353,-1.559334306,1.596014987,9.019975674,5.200300796
11.5330603,1.194629618,0.348935603,-1.669904512,1.705971024,9.938260437,4.582328073
11.54304321,5.246797077,3.183427792,-1.542818932,3.537584312,10.27203583,4.062623962
11.55302637,8.804293159,7.519501186,-1.544433674,7.676468814,10.32523381,3.976665083
11.56300928,2.729721901,11.66534544,-2.476415248,11.92530573,9.955306773,4.359492961
11.57299243,-5.24547255,9.988052861,-3.530860589,10.59378008,9.135398988,4.671721621
11.58297534,-5.242110965,2.131544411,-7.397385211,7.698362783,8.484731255,4.872110051
11.59295825,-2.450372899,-5.929031737,-12.28574294,13.64158704,8.173680172,5.009733812
11.60294141,-2.351670532,-8.958846007,-13.96665254,16.59301977,7.31792689,4.725452094
11.61292432,-1.698108278,-9.041284052,-12.25800621,15.23166221,6.247273061,3.575719043
11.62290747,4.18512763,-6.674676501,-8.463602822,10.77886261,5.348861172,1.976536852
11.63289038,9.278722689,-2.117602395,-4.577654538,5.04372491,4.917437508,0.94687544
11.64287329,10.65685696,0.762625125,-3.997468631,4.069564171,5.006293327,0.995024647
11.65285669,9.22494083,1.927476129,-3.478928449,3.977198434,5.068347488,0.953139357
11.66283936,7.88832047,3.003129677,-2.20589808,3.726227877,4.997508163,1.052725534
11.67282227,6.535102611,3.956614643,-1.024504522,4.087102757,4.85968976,1.276553131
11.68280542,5.129796837,4.562208547,0.48439519,4.587851951,4.637299475,1.555100168
11.69278711,3.001102555,4.385584736,2.571819158,5.084054215,4.383398057,1.738861551
11.70277051,0.206811005,3.424915996,4.787547873,5.88648148,4.134045832,1.798279161
11.71275342,-2.630845347,1.328922791,6.104568921,6.247543317,3.946654993,1.700901263
11.72273608,-4.290539139,-1.219552316,6.348549527,6.464625971,3.718465616,1.520401949
11.73271924,-4.431584271,-3.339589829,4.90297078,5.932283093,3.348911748,1.229245409
11.74270239,-2.583908239,-3.937146557,2.548719145,4.690105787,2.925805233,0.967540123
11.7526853,-0.320075967,-3.075937139,1.106208845,3.268805178,2.568592286,0.907789455
11.76266821,2.029799024,-2.279779747,0.562062476,2.34804385,2.371009757,0.948014625
11.77265137,4.108676843,-1.850423869,0.217819671,1.86319991,2.32108299,0.960967791
11.78263452,3.636579556,-2.044384598,-0.135010528,2.048837775,2.337735267,0.954308749
11.79261743,2.70747266,-2.14682732,-1.449823545,2.590531964,2.347873937,0.951720678
11.8026001,2.424693829,-2.284482225,-3.298770035,4.012573087,2.267519276,0.961710292
11.8125835,-0.04561375,-2.041927853,-3.399545116,3.96564955,1.985823024,0.809883605
11.82256641,-1.182694777,-1.614438938,-2.249762502,2.769087286,1.726281505,0.484224419
11.83254932,-0.316610958,-1.497913915,-0.806471573,1.701217944,1.688248797,0.410085618
11.84253247,0.092775387,-1.115649458,0.072092555,1.117976319,1.795220723,0.523384964
11.85251538,0.195231407,-1.172543896,0.544919984,1.292979883,1.974202116,0.565519742
11.86249829,0.305868614,-1.17614046,1.426417535,1.848776181,2.201641146,0.689562284
11.87248145,-1.046724391,-1.145773378,1.675403694,2.029722684,2.410729538,0.849351403
11.88246436,-2.495029348,-1.386589967,1.643421287,2.150224468,2.638652953,1.007600511
11.89244727,-3.40538712,-1.048629347,1.446959973,1.786985358,2.925664044,1.215017819
11.90243042,-3.700518067,-0.268052386,1.165174902,1.19561057,3.392624855,1.541201883
11.91241309,-3.21196415,0.98790746,0.949516208,1.370234352,4.100314167,1.942450424
11.92239648,-2.454751114,2.29211725,0.672587419,2.388760207,4.925450417,2.322797127
11.93237939,-1.650816219,2.610325706,0.929673444,2.770937207,5.668715707,2.568366902
11.9423623,-0.991185751,2.002097947,2.108755072,2.90779025,6.365690358,2.632321258
11.95234546,-1.600806718,1.522410643,3.226204565,3.567370188,7.067177396,2.550789599
11.96232837,-2.882003882,1.888111502,3.457738654,3.939660092,7.693565378,2.377669103
11.97231128,-3.546293136,2.658500247,3.39108913,4.30895684,8.208955675,2.043159824
11.98229443,-2.887615292,3.034095308,3.999754112,5.020335377,8.586123162,1.585211142
11.99227734,-1.292920188,3.125135177,5.649878696,6.456593463,8.773732459,1.221359784
12.00226025,0.269950767,2.931394228,7.735712326,8.27250369,8.683440935,1.408378067
12.01224365,-0.518352843,2.402439912,9.316834685,9.621596857,8.300414056,1.902292067
12.02222681,-2.39981307,2.204547688,9.570795418,9.821413108,7.692338518,2.310792063
12.03220972,-3.284859875,2.665589913,9.36886064,9.740683717,6.992827903,2.600956616
12.04219287,-3.482258763,3.412241224,9.317499871,9.922660632,6.389624624,2.593189504
12.05217554,-3.009343145,3.84455186,9.048364366,9.831250007,6.078896926,2.323353789
12.06215869,-3.357477368,3.483957383,8.399698213,9.093563059,6.145428153,2.436618104
12.07214087,-3.445818499,2.047416513,7.816949178,8.08063171,6.568351056,3.168682591
12.08212354,-3.13909999,0.531438534,6.875921543,6.896428349,7.14500703,3.844147464
12.09210669,-3.617996436,-0.188204358,5.550488347,5.55367822,7.820446498,4.306696679
12.10208984,-3.957524159,0.170807818,4.438949831,4.442234901,8.537207246,4.463394332
12.11207275,-2.188549324,1.490743,3.21173531,3.540841481,9.165895484,4.281379121
12.12205566,-0.175233781,2.444685062,1.418282744,2.826306954,9.551420111,3.915440796
12.13203857,1.581208868,3.614667584,-0.829620394,3.708650932,9.672560728,3.719325658
12.14202197,2.016027688,6.059884561,-3.11885449,6.815383644,9.467587228,4.081225
12.15200488,2.159317384,9.204724556,-5.044885096,10.49656228,8.918027155,4.721189931
12.16198755,4.124333847,11.546034,-6.647246642,13.32279209,7.974546212,5.227083828
12.1719707,5.648111101,11.64212823,-7.497036841,13.84719145,6.799998175,5.212957872
12.18195386,6.318479383,10.65167225,-8.537379421,13.65082302,5.66863556,4.769580699
12.19193652,4.683126252,9.274281491,-8.707399888,12.7212857,4.59132781,3.999460352
12.20191968,0.43757411,7.118373624,-8.027621973,10.72911728,3.613848,2.949770283
12.21190283,-4.852014499,4.097416614,-6.157376967,7.396087751,2.985636481,1.820220836
12.22188574,-6.375252825,1.756900951,-3.635440323,4.037713126,2.807069563,1.423045259
12.23186865,-2.879938181,0.636448476,-1.531971083,1.658915929,3.040307239,1.757475753
12.24185156,0.187404878,0.05275427,-1.318728145,1.319782911,3.548401634,2.002100368
12.25183472,1.969872671,-0.725920073,0.774828481,1.061752856,4.121515261,2.100008436
12.26181787,3.266207782,-0.939770329,1.266784899,1.577311717,4.770604497,2.056640288
12.27180054,5.888727199,-1.579561686,1.980893246,2.533565308,5.475006355,2.048581055
12.28178369,6.231529998,-2.134717196,1.929870915,2.877745516,6.20865501,2.173678667
12.29176685,5.457561642,-2.866874702,0.680307784,2.94648761,6.983787901,2.229027349
12.30174976,4.701152907,-4.211833851,-1.426983937,4.447002085,7.7935121,2.081163842
12.31173267,3.015298254,-4.56073672,-3.267487885,5.610418568,8.455302202,1.9605009
12.32171582,0.614811376,-4.908315648,-4.060355003,6.370089894,8.933333615,1.783340287
12.33169873,0.640166035,-5.267492659,-4.204667905,6.739859872,9.205840011,1.565771243
12.34168188,2.982788315,-5.787647582,-4.027231901,7.050919183,9.295748822,1.442555111
12.35166455,4.561758172,-5.950417639,-4.651341705,7.552645215,9.190641743,1.62858457
12.36164771,5.719851226,-6.399159186,-5.777378117,8.621330303,8.841504013,2.212043144
12.37163086,6.462595593,-6.8732041,-7.083571775,9.870051859,8.140358143,3.102633145
12.38161353,6.881649857,-6.878132204,-8.103611572,10.62907442,7.524293256,3.303172537
12.39159668,6.458364823,-6.944674761,-8.586935187,11.0437296,7.573366141,3.352214684
12.40157983,5.995422318,-7.192028058,-8.408734337,11.06490311,8.152679715,4.275352448
12.41156274,4.81235732,-7.197031565,-7.494668942,10.39073269,9.007103579,5.461276969
12.42154468,3.613761867,-6.582133242,-6.276730491,9.095153857,9.757501812,6.080293528
12.43152759,2.551554076,-5.582052529,-5.214807363,7.638947982,10.17663373,6.16407261
12.44151099,0.406999961,-4.037438238,-4.438161019,5.999848394,10.18951171,6.158889769
12.45149365,-2.52631822,-2.718098099,-3.01758841,4.061267916,9.92793062,6.382759485
12.46147656,-6.025010816,-1.57849844,-0.316273981,1.609871597,9.658508001,6.674888676
12.47145996,-8.891861552,1.694292811,3.299854908,3.70940299,9.759358222,6.559135783
12.48144287,-8.355233048,7.00208767,8.638332781,11.11980328,9.618127763,6.701541055
12.49142554,-9.514552137,12.55218439,11.22152849,16.83686534,8.584981833,7.170374274
12.50140869,-9.851354234,15.44652402,12.07987316,19.60914174,7.134196668,6.812770745
12.51139185,-6.330507674,13.65464411,11.56596386,17.89471502,5.878649135,5.410699461
12.52137476,-2.701177359,9.787958159,8.984778321,13.28647306,5.127718443,4.037855304
12.53135767,-1.048781908,6.1929498,4.688813065,7.767727801,5.005493561,3.800568393
12.54134058,-0.76950524,3.130696903,1.284696988,3.384037448,5.1969642,3.978949945
12.55132373,-0.097598497,-0.35677521,1.319664549,1.367041723,6.35938599,4.876298936
12.56130688,2.123610111,-1.494641761,2.149866834,2.618373808,8.134092519,5.865547609
12.57128955,2.374438975,-1.692278549,1.553336527,2.297098398,9.754520376,6.337276877
12.58127295,0.289786225,-0.771828422,-0.160521401,0.788343982,10.82885295,5.875822482
12.59125586,0.071625559,2.162290847,-0.865334097,2.329013698,11.39309596,5.104904252
12.60123877,4.883951606,7.03543932,-0.506757682,7.053666406,11.53789285,4.860436276
12.61122168,5.853128647,10.30294182,-1.306174368,10.38540811,11.16458897,5.31281481
12.62120483,-0.852944571,11.27348781,-4.29580948,12.06422424,10.51263218,5.750427333
12.63118774,-4.272889793,4.009851727,-8.81309372,9.682434188,9.851081894,5.912135083
12.64117065,-2.688296542,-7.516847456,-12.99017833,15.00825535,9.525807771,6.001273532
12.65115356,-4.013201038,-11.54420795,-15.23418358,19.11410701,8.5915808,5.798845015
12.66113672,-2.551588855,-11.6938327,-14.74945828,18.82265239,7.126770976,4.702192506
12.67111987,4.149803803,-7.60745361,-10.59147351,13.04042413,5.573257108,2.737121567
12.68110254,9.731317988,-2.753973714,-5.811237717,6.430774061,4.555252278,1.271068362
12.69108594,9.99850762,0.275299873,-3.766936121,3.776982626,4.22628115,1.164314293
12.70106885,9.106144939,1.81619602,-2.779927947,3.320627558,4.126880199,1.238496716
12.71105176,7.403149766,3.438654014,-1.766459637,3.865840281,4.010100567,1.35827804
12.72103467,5.130330506,5.446168141,-0.166784115,5.448721351,3.793278474,1.52662479
12.73101782,3.017666736,6.300776553,1.281080113,6.42969295,3.422912763,1.529340227
12.74100073,1.403311969,5.373698532,1.796317746,5.665985648,2.975304129,1.204301204
12.75098389,0.365127517,3.981090912,2.023894622,4.466008765,2.6510312,0.807271595
12.76096655,-0.64847443,2.092327668,2.535726977,3.287513707,2.441497053,0.535003649
12.77094971,-1.905079588,-0.344281055,2.839581037,2.860375833,2.35453661,0.455135151
12.78093188,-2.277817507,-1.965600985,2.450038406,3.141062785,2.311800743,0.424676629
12.79091455,-1.511906784,-2.35355167,1.485171337,2.782973116,2.244099912,0.330631824
12.80089771,0.374613028,-2.01376325,0.761209486,2.152831231,2.199659437,0.281418627
12.81088086,2.155089537,-1.689504408,0.165789953,1.697619349,2.189836925,0.284578145
12.82086377,3.502643379,-1.707362136,-0.360782144,1.745064245,2.27814556,0.253448873
12.83084668,3.856659062,-1.806333967,-0.744134652,1.953606609,2.369748778,0.205165177
12.84082959,2.123791313,-2.16677939,-1.085006191,2.423256355,2.455367972,0.191856855
12.85081274,0.73824647,-1.955461868,-1.34023592,2.370667298,2.511068699,0.24729519
12.86079565,-0.783970111,-2.049515532,-1.282876203,2.417909276,2.60793995,0.34410688
12.87077856,-1.397107854,-2.15515968,-1.129096677,2.43301717,2.685859059,0.378732085
12.88076196,-0.754498517,-2.413893034,-0.494656325,2.464054475,2.688359424,0.377133749
12.89074487,0.493171567,-2.259951011,0.601268186,2.338568366,2.668878744,0.39291801
12.90072754,2.137727483,-1.41301854,1.491571268,2.054606104,2.756085914,0.406472029
12.91071069,2.240042195,-0.635423809,2.501255383,2.5807057,2.890706212,0.373438469
12.92069385,0.408171636,-0.451815547,2.622460088,2.661096429,2.994389533,0.41463792
12.93067676,-1.116149298,-0.735268331,2.711890184,2.80979855,3.132143957,0.500885154
12.94065967,-2.203178738,-0.945223334,2.82639773,2.980263626,3.290080338,0.611196293
12.95064258,-3.001843729,-1.277062256,3.085542003,3.339379801,3.498831066,0.797749193
12.96062573,-3.495889813,-1.131148641,2.990309943,3.197100374,3.752855414,1.065903417
12.97060889,-3.441839074,-0.026684593,2.457875968,2.458020818,4.086611797,1.32955497
12.98059155,-2.972999911,1.465437878,1.732621373,2.269247672,4.518886675,1.428801111
12.99057471,-2.021597305,2.779678649,1.606734647,3.210640063,4.967681449,1.354610978
13.00055786,-1.324868109,2.583951494,2.211039826,3.400809086,5.358426048,1.354988603
13.01054077,-1.023430024,1.876491207,3.092792997,3.617538911,5.82103984,1.396730679
13.02052295,-1.745743305,1.859789663,3.584940846,4.03864067,6.381148638,1.518536422
13.0305061,-3.529345216,1.78269824,4.010827002,4.389162364,6.910356078,1.532041841
13.04048901,-3.817162625,2.028052472,4.644276589,5.067770897,7.313479845,1.333050986
13.05047192,-2.254158545,2.168332465,5.465190237,5.879623287,7.564256909,1.103033346
13.06045483,-0.807460584,2.300363101,6.116385031,6.534664203,7.640543449,1.005996793
13.07043701,-1.199649346,2.059789088,6.460348691,6.780769595,7.549510156,1.134881821
13.08041992,-3.042776628,1.971323454,6.463247919,6.757195411,7.265994954,1.5643797
13.09040308,-4.329649498,2.310942362,6.732510266,7.118086055,6.888642477,2.02801169
13.10038599,-4.598656117,2.97008607,7.45724259,8.026947011,6.612868666,2.161190206
13.11036914,-3.633036184,3.72884809,8.430822834,9.21862689,6.586549301,2.145353631
13.12035205,-2.819216878,3.534868655,8.635215526,9.330715063,6.828419786,2.53027626
13.13033496,-2.08814483,1.809787322,8.223612747,8.420400036,7.233472327,3.147384329
13.14031787,-1.96700486,0.110980833,7.574728568,7.57554154,7.608957402,3.473654671
13.15030103,-2.657002702,-0.62138827,6.613360155,6.642488684,8.000689556,3.663493327
13.16028394,-2.591764214,0.202189044,5.620695856,5.624331277,8.408607514,3.716273382
13.17026685,-0.792714631,1.4798744,3.657577043,3.945617578,8.757516216,3.60047316
13.18025,1.156153903,2.649557062,1.371910284,2.983670634,9.026550838,3.320495289
13.19023291,2.396221768,4.192165274,-1.199326689,4.360347944,9.185137573,3.055387938
13.20021606,1.74356333,7.046919914,-3.258340994,7.763753365,9.144483203,3.121308703
13.21019897,2.242712876,10.29519807,-5.425531011,11.63733174,8.627803992,3.684015946
13.22018213,3.902077581,11.56717031,-6.72741908,13.38124047,7.665453571,4.014299178
13.23016504,4.376823338,9.807956991,-7.213924832,12.17525079,6.488816795,3.888965759
13.24014795,3.40149888,8.517353701,-7.716254761,11.49286307,5.30484479,3.778227724
13.25013086,1.438357564,7.698569467,-7.462318578,10.72166827,4.287405477,3.316592135
13.26011426,-0.950908247,6.660629271,-6.220161632,9.113418295,3.460806738,2.55187493
13.27009692,-2.517618781,5.005494166,-4.356723968,6.635963801,2.831042591,1.721007668
13.28007983,-2.98998261,3.766903387,-2.586719205,4.569537983,2.532174908,1.221240536
13.29006299,-1.832700581,3.125833681,-2.421101358,3.953804242,2.607148959,1.35923403
13.30004614,0.688773707,1.508565657,-2.113867884,2.596961258,2.895641654,1.836728039
13.31002881,2.504443658,0.693615302,-1.890608141,2.013827532,3.446169011,2.402588139
13.32001196,3.40154798,0.762882315,-1.423314601,1.614872713,4.110707932,2.80057927
13.32999512,4.451440479,-0.232132932,0.242270879,0.335530739,4.894999215,3.076416095
13.33997705,4.446196149,-1.186990939,0.573947304,1.318469946,5.97288459,3.17674348
13.34995996,4.194027561,-2.341671847,0.739554923,2.455680867,7.073995951,3.279276982
13.35994287,3.492373914,-2.814878557,-0.071118778,2.815776833,8.114357553,3.299301825
13.36992603,2.249457528,-3.12991832,-1.872515289,3.647286964,9.078630493,3.005867135
13.37990894,1.282522859,-4.056273871,-3.441128588,5.319278492,9.829810647,2.440050596
13.38989209,0.834931652,-5.304433273,-4.316391081,6.838731192,10.25381279,1.93569023
13.399875,1.197172288,-6.407611372,-4.958702019,8.102234828,10.36380757,1.761960287
13.40985791,2.579254568,-6.689140495,-5.498857529,8.659216748,10.15901035,2.099597287
13.41984106,4.496382322,-7.155217792,-6.184865862,9.457785543,9.703132167,2.765172576
13.42982397,5.787305637,-8.379069266,-7.30210522,11.11438448,8.964023007,3.595190732
13.43980688,6.282520181,-9.089416507,-8.330734567,12.32958356,8.453164083,3.616230808
13.44979004,6.23858167,-9.548454406,-8.613276666,12.85929689,8.772873246,4.059027526
13.45977295,5.907807163,-9.438959428,-8.131446505,12.45850622,9.850793801,5.97851144
13.46975586,5.076482596,-8.68309839,-7.009212407,11.1590885,11.06862831,7.44595268
13.47973926,3.835418121,-7.577201095,-5.828056165,9.559299927,11.55671279,7.59437647
13.48972192,2.311821483,-6.727176504,-4.215177316,7.938678953,11.39347516,7.652873881
13.49970483,0.534692568,-5.226368037,-3.056006111,6.054262648,10.87996576,8.030432513
13.50968799,-3.058442983,-3.581026595,-1.997452167,4.100434933,10.45708486,8.377272584
13.51967114,-7.272932317,-1.962292006,0.648562985,2.066693945,10.34029768,8.4726737
13.52965405,-9.680995329,3.291832052,5.023287596,6.005795246,10.23017769,8.585890499
13.53963696,-8.680439985,10.42823876,11.50345509,15.52667519,9.838751244,8.854576085
13.54961987,-8.24884305,18.21844256,15.06210969,23.63850244,8.765176483,8.750071963
13.55960327,-8.165160558,20.23641904,14.05210964,24.63685128,7.222120985,7.217493125
13.56958594,-6.022388651,12.39211891,10.1840489,16.03993339,5.83677121,4.594993756
13.57956885,-4.023667779,5.10441339,6.064740769,7.92692353,5.141812117,3.358440147
13.58955225,-2.918295677,0.941904418,2.64062586,2.803585002,5.228992322,3.439932686
13.59953394,-1.803629969,-1.762542756,-0.47510436,1.825453675,6.264891154,4.057827148
13.60951709,0.541102142,-1.823303807,-2.296843402,2.932563108,7.583959356,4.518139865
13.6195,3.111723323,-0.337906259,-0.904432473,0.965494039,8.579245554,4.479955179
13.62948267,2.706370544,1.881444445,0.913601576,2.091530789,9.211523052,3.746994049
13.63946606,4.582302363,4.790477788,-0.065648238,4.790927586,9.373747892,3.459297223
13.64944897,7.802467648,7.888906745,-2.266175584,8.207947454,9.213710272,3.69649739
13.65943188,4.496427914,9.742111185,-4.62298421,10.78335353,8.677002377,4.16367541
13.66941479,-2.036236948,7.080030741,-5.701534064,9.090342457,7.905307585,4.409635831
13.67939795,-2.336635314,0.010634207,-8.798719158,8.798725584,7.291196167,4.624240129
13.6893811,0.134518361,-5.904083758,-11.764146,13.16257331,6.683302787,4.782945924
13.69936401,1.374219292,-7.787538959,-12.83894732,15.0161357,5.650395227,4.369631443
13.70934692,3.455142792,-4.935269121,-11.90282733,12.88542509,4.398502426,3.122337757
13.71933008,7.969470813,-1.548567997,-7.121853867,7.288269022,3.318565643,1.38372116
13.72931299,10.85791145,0.956734908,-3.588427812,3.713779186,2.752848328,0.550952899
13.7392959,9.264950184,1.739452973,-2.674681566,3.190551383,2.512062468,0.602156495
13.74927905,6.80644644,2.310980356,-1.652242014,2.840868508,2.329807552,0.643605667
13.75926196,5.066620542,3.035197132,-0.436373355,3.066405605,2.207136514,0.651365604
13.76924487,3.369471172,2.907320109,0.495416204,2.949228278,2.076006161,0.594710986
13.77922827,1.421095463,2.476407065,1.124577884,2.719791788,1.988505784,0.51939722
13.78921094,-0.22298436,2.088943871,1.914424924,2.833497712,1.915029094,0.459236255
13.79919385,-1.141851383,1.020142089,2.279332441,2.497207692,1.811776188,0.342314611
13.809177,-1.268379183,-0.368476754,2.053255887,2.086057251,1.747299133,0.257304682
13.81915991,-0.817989796,-1.166163256,1.140410902,1.631095878,1.718335708,0.232663767
13.82914307,-0.480351833,-1.302653793,0.092312884,1.305920584,1.741227426,0.234210517
13.83912598,0.553282702,-1.208377426,-0.641290948,1.368002224,1.777437901,0.187430034
13.84910889,1.603460448,-1.06844464,-1.209930793,1.614158131,1.807219212,0.136840394
13.85909106,1.662787666,-1.209928747,-1.271399115,1.755102072,1.845341346,0.130710239
13.86907397,1.660408077,-1.530284152,-1.40022774,2.074224508,1.899013444,0.182550681
13.87905713,1.836284284,-1.542490139,-1.249419046,1.985024882,1.97023684,0.322394099
13.88903979,1.143473285,-1.526649595,-0.955420902,1.800968653,2.073678287,0.450886399
13.89902295,0.57800564,-1.662697065,-0.816677325,1.852437147,2.249425435,0.620827031
13.9090061,0.574968464,-1.643383877,-0.725551532,1.796423,2.42142081,0.717709959
13.91898901,0.46102173,-1.821652532,-0.375806659,1.860013063,2.572754376,0.729423008
13.92897168,0.506927741,-1.667946656,0.016200627,1.668025332,2.683164728,0.695976938
13.93895508,0.765537798,-1.501571853,0.721264648,1.665815332,2.847425901,0.627473919
13.94893799,0.503580732,-1.534791401,1.275129242,1.995379469,3.077812361,0.57181348
13.9589209,0.256706816,-1.36348031,1.842111383,2.291823052,3.315476892,0.566408606
13.96890405,-0.538828645,-1.078080483,2.56945389,2.786458473,3.570078807,0.618845269
13.97888696,-1.188660334,-0.610242022,2.957130142,3.019439352,3.836311235,0.776940493
13.98887012,-1.985017633,-0.917328195,3.438168861,3.558440127,4.162574116,1.014215851
