time,seconds_elapsed,z,y,x
1646167905831278800,0.01827880859375,-0.0977751684449613,-0.033927988564968106,-0.027161563169956205
1646167905841260000,0.028260009765625,-0.1193294131271541,-0.04357084617912769,-0.04704349072575569
1646167905851241000,0.038240966796875,-0.07036912899464369,-0.03409633086919785,-0.054229602837562556
1646167905861222000,0.048221923828125,-0.03772591954320669,-0.016605682364106176,-0.05007774385511875
1646167905871203000,0.058203125,-0.04680369062051177,0.004728782087564468,-0.05018354231715202
1646167905881183700,0.068183837890625,-0.12517536267638205,0.04209668197333812,-0.03895896846950054
1646167905891164700,0.07816455078125,-0.2099769216492772,0.03860182559490204,-0.06314765330851077
1646167905901145900,0.088145751953125,-0.13476838979944586,0.044156537112593645,-0.01610416258275509
1646167905911126800,0.098126708984375,-0.09825403800308703,0.0023158757269382477,0.0031646015107631683
1646167905921107700,0.108107666015625,-0.1047892849907279,-0.04679506892263889,0.00017068039178848266
1646167905931089000,0.1180888671875,-0.1174425764672458,-0.05497077659368515,-0.02611351542174816
1646167905941069800,0.12806982421875,-0.1744714546345174,-0.09051029200851916,-0.05378595072329044
1646167905951050800,0.13805078125,-0.15459084225296973,-0.06503156735897064,-0.08556231421232223
1646167905961032000,0.148031982421875,-0.16133257159814238,-0.06810732154250144,-0.13848141897320745
1646167905971012900,0.158012939453125,-0.23131752358078955,-0.021092472389340398,-0.10406243202090262
1646167905980993800,0.167993896484375,-0.2402344050079584,0.010578092637658118,-0.10945464645326138
1646167905990975000,0.17797509765625,-0.16027239502072332,0.05477905341386795,-0.10133154575228691
1646167906000956000,0.187955810546875,-0.0926262612491846,0.002054594442248344,-0.10968787068724632
1646167906010936800,0.197936767578125,-0.15992738097533582,-0.03473521329462528,-0.10977496444880962
1646167906020918000,0.20791796875,-0.17461217827945946,-0.03523731759786606,-0.15608546472489834
1646167906030898700,0.217898681640625,-0.16541384956240654,-0.04581599475741386,-0.13076573002934455
1646167906040879600,0.227879638671875,-0.01440963362455368,-0.014047230052947998,-0.1385533151656389
1646167906050860800,0.23786083984375,0.04044511537402868,-0.04022913453578949,-0.22508827380239962
1646167906060841700,0.247841796875,-0.03846738556027412,-0.203059981867671,-0.2206979298889637
1646167906070823000,0.257822998046875,-0.08753887498229741,-0.26757833900749683,-0.25054537114202974
1646167906080803800,0.267803955078125,-0.29771789507493374,-0.06802490395605564,-0.37655952273011206
1646167906090784800,0.27778466796875,-0.316323665215075,0.1471422798126936,-0.4760194293916225
1646167906100766000,0.287765869140625,-0.14945961684435605,0.39306349828541276,-0.2397907528936863
1646167906110747000,0.297746826171875,-0.09368570717424153,0.4521703517705202,-0.14628595524430274
1646167906120727800,0.307727783203125,-0.06404109501689673,0.4097235411852598,-0.020079495954513547
1646167906130709000,0.317708984375,0.17688231516852973,0.3019704379528761,-0.07945522950887679
1646167906140690000,0.32768994140625,0.2782520009741187,0.01812310118973255,-0.0018067571610212326
1646167906150670800,0.3376708984375,0.28788945176079866,-0.33417876311838624,-0.15815233412683008
1646167906160652000,0.347652099609375,0.16700506427660583,-0.4709533781737089,-0.09299743264913558
1646167906170632700,0.3576328125,0.067350950217247,-0.5215682976454497,-0.28182489102482794
1646167906180613600,0.367613525390625,0.02041530378013849,-0.3386550317496061,-0.2350011805295944
1646167906190594600,0.377594482421875,-0.14636545022130013,-0.43132337857484815,-0.39262510686814783
1646167906200575500,0.387575439453125,-0.20025573810189962,-0.519868507990241,-0.36947394838333125
1646167906210556700,0.397556640625,-0.1203453121714294,-0.8028998521953821,-0.5897995378285646
1646167906220537600,0.40753759765625,-0.215150817155838,-1.032129463586211,-0.4075602256715297
1646167906230518500,0.4175185546875,-0.1721557250380516,-1.044725910308957,-0.29873043311834335
1646167906240499700,0.427499755859375,-0.13277210141569376,-0.6726309657722711,-0.47891164370179173
1646167906250480600,0.437480712890625,-0.052465369644016026,-0.3384375896066427,-0.5742997708797455
1646167906260461600,0.447461669921875,-0.09193462572321295,0.08553484168350696,-0.4407411952614784
1646167906270442800,0.45744287109375,-0.27905191918015476,0.32075463339984417,0.06270517023801803
1646167906280423700,0.467423583984375,-0.33497648936733604,0.2556155140131712,0.5724433293581008
1646167906290404600,0.477404541015625,-0.2520078449100256,0.12585983780920504,0.18627368223965166
1646167906300385800,0.4873857421875,-0.17051541048511862,0.16631518231630324,0.01563186889588833
1646167906310366700,0.49736669921875,-0.1387104054234922,-0.00018587796092033385,0.05091477920114994
1646167906320348000,0.507347900390625,-0.33684622876197096,0.14397241760492324,0.45805005745887756
1646167906330328600,0.51732861328125,-0.5669828719951212,0.30879005483984945,0.3775374278515577
1646167906340309500,0.5273095703125,-0.5614950882337987,0.3938116863042116,0.38884208119809627
1646167906350290700,0.537290771484375,-0.5176103537999093,0.23992636197209358,-0.10193886399567127
1646167906360271600,0.547271728515625,-0.6332067178785801,0.09008768268227577,-0.06964344506859779
1646167906370252500,0.55725244140625,-0.5418539836965501,-0.27462124325633047,0.17745149335861204
1646167906380233700,0.567233642578125,-0.3504955455385148,-0.5131634573936462,-0.35610417920053006
1646167906390214700,0.577214599609375,-0.06183715523183345,-0.5905266830593348,-0.3705050449967384
1646167906400195600,0.587195556640625,-0.09627075523138046,-0.5532406162381172,-0.261098913860321
1646167906410176800,0.5971767578125,-0.3045454030074179,-0.7545026087731123,-0.16470365546643734
1646167906420157700,0.60715771484375,-0.18873378874287008,-0.561862898632884,-0.2411789923816919
1646167906430138600,0.617138671875,-0.19258476508259773,-0.674624769937992,-0.5205266796380281
1646167906440119800,0.627119873046875,-0.35864407294169065,-0.688631083458662,-0.8006137870848178
1646167906450100700,0.637100830078125,-0.44266880232319233,-0.5649883371770381,-1.1727315279752015
1646167906460081700,0.64708154296875,-0.7502851372085512,-0.7825280952960252,-1.3435077813535927
1646167906470061800,0.657061767578125,-0.5421463907718658,-0.29770693528950215,-0.8964438128113746
1646167906480042800,0.667042724609375,-0.0458067885376513,-0.18407997158765793,-0.12277005510032177
1646167906490024400,0.6770244140625,0.053568070188909765,-0.7030711122214793,-0.12237784091234206
1646167906500004900,0.6870048828125,-0.1345282974332571,-0.5500298374980688,-0.377809230530262
1646167906509986600,0.696986572265625,-0.10796937633156775,-0.5109457813441753,-0.7491413740009069
1646167906519966700,0.706966796875,-0.11596738934814929,-0.2709773337960243,-1.124309150111675
1646167906529948700,0.71694873046875,-0.47487552005350586,-0.7503343831777572,-1.4548317288100718
1646167906539929600,0.7269296875,-0.3827729173522442,-0.9538771801263093,-1.1323206071317196
1646167906549910800,0.736910888671875,-0.07658866109661758,-0.5186813440322876,-0.6716758570045233
1646167906559891700,0.7468916015625,-0.12853102977983652,-0.2102531082421541,-0.4911155839756131
1646167906569872600,0.75687255859375,-0.20624730666689572,-0.675268328538537,-0.44253129354864357
1646167906579853800,0.766853759765625,-0.388199107119441,-2.249348368063569,-1.0512541430339217
1646167906589834800,0.776834716796875,0.06359188994467257,-1.9121780219137667,-1.0038567243039607
1646167906599815700,0.786815673828125,0.6438450893361121,0.28725685294568537,-0.6749851276829838
1646167906609796900,0.796796875,0.6548065552681684,-0.36131519184708594,-0.07158522678613663
1646167906619777800,0.80677783203125,1.0406593184571713,-1.2618810530245304,0.41857758650928734
1646167906629758700,0.8167587890625,0.9946784885268658,-0.5682417860150337,-0.11285627159029245
1646167906639739600,0.82673974609375,0.5641904282649979,-3.551633327668905,-0.44666357104778287
1646167906649720600,0.836720458984375,0.6455050584375858,-0.9697422732561826,-0.962100526331365
1646167906659701500,0.846701416015625,0.48331660066246984,-2.603748081433773,-1.2310219505108893
1646167906669682700,0.8566826171875,1.1290735880345106,-0.5447855071038007,-0.2549177410073578
1646167906679663600,0.86666357421875,1.0829524728506803,1.5513888997673988,0.9983503819726407
1646167906689644500,0.87664453125,0.9936264221906661,1.29573130017817,1.6330964382477104
1646167906699625700,0.886625732421875,0.7967208712995052,0.7773807955354451,1.9580469159021971
1646167906709606700,0.896606689453125,-0.1420833159226924,-0.35774200953543184,2.0894570813149214
1646167906719587600,0.906587646484375,-1.7044985635519028,0.1188683714866638,2.288748650559783
1646167906729568800,0.91656884765625,-1.2148421654086559,0.9312930078744888,2.5466908539548516
1646167906739549700,0.9265498046875,-2.032319482076168,2.09322607845962,2.984558247345686
1646167906749530600,0.936530517578125,-1.9135563245296476,5.16410827203989,2.8222172293573617
1646167906759511800,0.94651171875,-0.2312766070485115,7.894848410183191,1.6284779846668243
1646167906769492700,0.95649267578125,0.7812742958426475,6.7271081146240235,0.5506909317553043
1646167906779473700,0.9664736328125,-0.3129224784694612,3.76223890261054,0.8028758867979049
1646167906789454600,0.97645458984375,-1.3761305325388908,1.1864274603724478,0.805956609417498
1646167906799435500,0.986435546875,-0.8693652517497539,0.3863964416116476,0.3975897435382008
1646167906809416700,0.996416748046875,-0.34546975326575335,0.6215706406205892,0.2274489385191351
1646167906819397600,1.006397705078125,-0.6934475438296794,0.3712058867424726,0.4998170690864324
1646167906829378600,1.016378662109375,-1.0582663598835467,-0.01576981606185436,0.7740794159024953
1646167906839359700,1.02635986328125,-1.085054998087883,-0.3013110972613096,0.9525240119516849
1646167906849340700,1.036340576171875,-0.9059691815257072,-0.33146833511590956,1.0915680332437157
1646167906859321600,1.046321533203125,-0.6716110481400043,-0.33553719199001786,1.0400795458078385
1646167906869302800,1.056302734375,-0.4414974204562604,-0.2598690798044205,0.868947318598628
1646167906879283700,1.06628369140625,-0.3280230169676244,-0.20826456477344035,0.7073331535801292
1646167906889264600,1.0762646484375,-0.21271343394108116,-0.12338497212827206,0.6310530469760298
1646167906899245800,1.086245849609375,-0.17797054879665375,-0.06151625271439552,0.4945782916501164
1646167906909226800,1.096226806640625,-0.36557284929156303,-0.09589315409064292,0.47232495878785846
1646167906919207700,1.106207763671875,-0.6767069830395281,-0.19958090758025646,0.5621676902657374
1646167906929188600,1.116188720703125,-0.9751531923890113,-0.35944822893142697,0.6659308836117387
1646167906939169500,1.12616943359375,-1.1142354998648165,-0.3383241923600435,0.5506377402633428
1646167906949150500,1.136150390625,-1.0263187314808369,-0.11832476612925528,0.25369477508366106
1646167906959131600,1.146131591796875,-0.8053788095295429,0.06386077001392841,-0.029680267992615698
1646167906969112600,1.156112548828125,-0.6264578281402587,0.09283201295435428,-0.21600947981178759
1646167906979093800,1.16609375,-0.4726958379268646,0.09445990641713142,-0.27137480868101116
1646167906989074700,1.17607470703125,-0.38140272497758265,-0.0044791912406682965,-0.27325284097995606
1646167906999055600,1.1860556640625,-0.4005648138262331,-0.08172258991897105,-0.1982450010676868
1646167907009036800,1.196036865234375,-0.4576690953172743,-0.08877426199615002,-0.06076282226489856
1646167907019017700,1.206017822265625,-0.5104409005619586,-0.227319978377223,0.04841795741673559
1646167907028998700,1.21599853515625,-0.4949405490912497,-0.26817922751009465,0.19582036773664876
1646167907038979800,1.225979736328125,-0.4503228242076933,-0.3430295935720205,0.26556376604838294
1646167907048960800,1.235960693359375,-0.2878374293126166,-0.3222001560330391,0.26153290309710425
1646167907058941700,1.245941650390625,-0.4924667063236236,-0.2976818008482456,0.35885406243056056
1646167907068923000,1.2559228515625,-0.7312345459103584,-0.2484036829382181,0.5002104523181915
1646167907078903600,1.265903564453125,-0.7984476950921118,-0.1171785187035799,0.6999065107107162
1646167907088885800,1.2758857421875,-0.8222505954839289,-0.07282324414849281,0.836822580063343
1646167907098866700,1.28586669921875,-0.7621323729991912,-0.0239244809448719,0.8941708994433283
1646167907108847600,1.29584765625,-0.7841665101528167,0.0518663808375597,0.9849179228171706
1646167907118828800,1.305828857421875,-0.9469302835978567,0.12054770287573337,1.0269441699028015
1646167907128809700,1.315809814453125,-1.02663451943174,0.21263445042073725,0.9560174070253967
1646167907138790700,1.325790771484375,-1.0970736449226737,0.34025486816167827,0.939517230862379
1646167907148771800,1.335771728515625,-1.2358978859841823,0.2994897270530462,1.0054609446302056
1646167907158752800,1.345752685546875,-1.3271408761814236,0.13857844960689544,0.907058730328083
1646167907168734000,1.35573388671875,-1.3431180513836443,0.03854804958105087,0.6460144692644476
1646167907178715000,1.36571484375,-1.2103567636229098,0.1488409004241228,0.42945963052958247
1646167907188696000,1.375696044921875,-1.158144491957128,0.48239539416432375,0.28891249293191357
1646167907198677000,1.385677001953125,-1.1004854991927742,0.8344406533628702,0.20589025512384249
1646167907208658000,1.395657958984375,-1.2320659066058695,1.2485516158521175,0.3542044830590486
1646167907218639000,1.40563916015625,-1.697965070129931,1.696564263421297,0.6655661419525742
1646167907228620000,1.4156201171875,-2.043099234765768,2.0820248854875563,0.9159896402806043
1646167907238601200,1.425601318359375,-2.682215761210024,1.7106792980134486,1.449667477914691
1646167907248582100,1.43558203125,-3.0810955445587633,1.468298528626561,2.0896260081410407
1646167907258563000,1.44556298828125,-3.153574213053286,1.6851421211749313,2.7022712917670604
1646167907268544300,1.455544189453125,-3.0015400695458054,1.7329302927881478,3.4143867111876607
1646167907278525200,1.465525146484375,-3.100411654925346,1.3745809650093317,4.1852918809682125
1646167907288506000,1.475506103515625,-3.3230247707858678,1.388231889221072,4.576257237930595
1646167907298487300,1.4854873046875,-3.4094799421846864,1.8489385986685751,4.8209231956452125
1646167907308468200,1.49546826171875,-3.2489424664869904,2.6185516828119755,5.089122881421447
1646167907318449000,1.505448974609375,-2.817846759188175,3.164183577612042,5.204539066627621
1646167907328430000,1.51543017578125,-2.495758539097011,3.220070884528756,5.107727044126391
1646167907338412000,1.525412109375,-2.4811028217568993,2.928167082560062,4.7583127179533244
1646167907348393200,1.535393310546875,-2.9271690114334223,2.5178929217547177,4.27966761623323
1646167907358374100,1.5453740234375,-3.381854560895264,2.1098183168202636,4.005954719993472
1646167907368355000,1.55535498046875,-3.649087447465956,1.6611428214281796,4.018672747269273
1646167907378336300,1.565336181640625,-3.7356747208118435,1.0842594637960195,3.910320216839015
1646167907388317200,1.575317138671875,-3.350844797864556,0.23384791884124279,3.0692323805466293
1646167907398298000,1.585298095703125,-3.2733179060697553,-0.6203694481372833,1.8793676392018794
1646167907408279300,1.595279296875,-2.9785458551883695,-0.33723230547010896,1.3929887283593416
1646167907418260200,1.60526025390625,-2.7795629135012625,0.6535550939023494,1.408258485944569
1646167907428241000,1.615240966796875,-2.049735750170797,1.6845342184096574,1.696350036148727
1646167907438222000,1.62522216796875,-0.7866179949581623,3.140550773090124,1.6494924233838915
1646167907448203000,1.635203125,1.8131261115312576,3.9689930628210304,0.9067106475427746
1646167907458184000,1.645183837890625,2.6872154691934584,4.300273766410351,-0.05972619095984846
1646167907468165000,1.6551650390625,3.941626332467794,4.33744526694119,-1.4508411978691815
1646167907478146000,1.66514599609375,3.9926445720434187,3.578603167659044,-2.9128412108734247
1646167907488127000,1.675126953125,0.9516109887599945,2.3794313765257598,-4.121564381945133
1646167907498108200,1.685108154296875,-1.3365718446105719,1.72266842649281,-6.0633174579113716
1646167907508089000,1.695089111328125,-2.223191598021984,1.145861641228199,-7.285397830945253
1646167907518070000,1.705070068359375,-1.1656021144866944,1.0875368780314922,-5.919463698250055
1646167907528051200,1.71505126953125,-0.7872071930229664,1.8001017947852611,-4.497193930348754
1646167907538033000,1.725032958984375,-0.5276571891050785,2.2424229527145623,-3.8995638450250025
1646167907548014000,1.73501416015625,-1.011158717880398,2.3059441155105826,-3.158870273634791
1646167907557995000,1.7449951171875,-0.7861737583220004,1.8837199891924856,-2.680037832649052
1646167907567976000,1.754975830078125,-0.003481266244500875,1.1483639794379472,-2.442077802313864
1646167907577957000,1.76495703125,1.1250177367724477,0.8841530710369347,-1.4585142167150973
1646167907587938000,1.77493798828125,2.175431337329,0.672547379142046,-0.9497364270597696
1646167907597919000,1.7849189453125,1.9727134468972682,0.3866401872396469,-1.132465276299417
1646167907607900200,1.794900146484375,1.944557611992955,-0.25058453410863873,-1.7288596823483704
1646167907617881000,1.804881103515625,2.1109972974717617,-0.8776292222261428,-2.270973632155359
1646167907627862000,1.814862060546875,1.7788403955698013,-1.6122890664100646,-2.1722291802868248
1646167907637843200,1.82484326171875,2.1659920394629237,-2.7949218106746674,-1.9305317169889806
1646167907647824100,1.83482421875,2.6084830010011792,-3.1826877870738506,-1.5769662624858318
1646167907657805300,1.844805419921875,2.9009269011959433,-3.224696206241846,-0.7996243376560509
1646167907667786200,1.8547861328125,3.155447021187842,-3.2447844700247046,-0.6219101017080247
1646167907677767000,1.864766845703125,3.2771596761897204,-4.116805204719305,-0.7338942666389048
1646167907687748000,1.874748046875,3.5024256446465847,-5.206408952152729,-1.2347371716417372
1646167907697730000,1.88472998046875,3.721350719644129,-6.310736221465468,-2.0909293458245695
1646167907707711000,1.8947109375,3.8633366396069526,-6.863547798636556,-2.980303512510657
1646167907717692200,1.904692138671875,4.4877179537341,-7.128466563045978,-3.224983206489682
1646167907727673000,1.914673095703125,4.328635937541723,-7.434339853656292,-3.034500966644287
1646167907737654000,1.924654052734375,3.827618260493874,-7.263893270623684,-2.390317219938338
1646167907747635200,1.93463525390625,3.364936743842065,-7.303755909934639,-1.7415082976497709
1646167907757616000,1.9446162109375,2.5334175308838485,-7.323722593164444,-0.7489495046906173
1646167907767597300,1.954597412109375,1.7927137303605674,-7.07587069889009,0.4742783578779548
1646167907777578200,1.964578125,0.7238280690461397,-6.078546006703377,1.5016364423438906
1646167907787559000,1.974558837890625,-1.382439569555223,-3.909478213056922,1.298417470522225
1646167907797540000,1.9845400390625,-3.6732425222963094,-1.1842039391040802,1.7677917628109454
1646167907807521000,1.99452099609375,-6.400062272125482,1.7279326306313276,3.6045752287834882
1646167907817502000,2.004501953125,-9.053249214988947,6.207317932567,6.1725061469048255
1646167907827484200,2.014484130859375,-8.766772698765992,10.205385114181041,8.864809879148005
1646167907837465000,2.024465087890625,-6.899561945825814,11.150421400725842,10.444634599804878
1646167907847446300,2.0344462890625,-5.898717847341299,9.228535054746269,8.96027340964973
1646167907857427200,2.04442724609375,-5.44798074324429,6.191306124442815,5.027577987134456
1646167907867408100,2.054408203125,-4.1705251044690606,3.068039663630724,2.0265727551177144
1646167907877389300,2.064389404296875,-2.905197710382938,1.024445923346281,0.43284722714126106
1646167907887370000,2.074369873046875,-2.7302392028838396,0.42737960938513275,0.2990286123473197
1646167907897351000,2.084350830078125,-1.8521455780163407,2.3481442578583955,0.283515474460274
1646167907907332000,2.09433203125,-1.7752780269131063,4.531968306609988,-0.3477800760347396
1646167907917313000,2.10431298828125,-3.0215143515601754,5.524522715654969,-0.9641114277623594
1646167907927294000,2.1142939453125,-2.3481740684747696,7.198004794174432,-0.29626579657047986
1646167907937275100,2.124275146484375,2.6802061749532817,9.065060648813843,-0.278591754322499
1646167907947257000,2.134257080078125,3.1636756280899045,7.2806088431030505,-2.3174553973451255
1646167907957238300,2.14423828125,0.39256665467917917,-0.25676526857018467,-3.971652929680049
1646167907967219200,2.15421923828125,3.3105881907999515,-7.118830135172605,-6.321425373262167
1646167907977200000,2.1642001953125,3.75698054369092,-10.491240868157147,-9.035594315832853
1646167907987181300,2.174181396484375,0.9545677927389741,-10.292722036850451,-10.821650049608944
1646167907997162000,2.184161865234375,2.5742557372286914,-8.204408280351757,-9.88376480386257
1646167908007143000,2.194142822265625,6.867172418874501,-3.0702257754981517,-5.565249278318881
1646167908017124000,2.2041240234375,9.835897137272358,0.7235708794146776,-2.7796204889073968
1646167908027105000,2.21410498046875,10.369278037786483,1.7727344799101352,-2.4206372471392155
1646167908037086000,2.2240859375,8.376981938540935,2.749882645508647,-2.4607523999065157
1646167908047067100,2.234067138671875,6.020297231352329,2.6419483404904605,-1.8600310705691574
1646167908057049000,2.244049072265625,3.510346208512783,1.4750971027255058,-0.6410235291093588
1646167908067030300,2.2540302734375,0.8752652695737778,1.2772948952555656,0.8105112039819359
1646167908077011200,2.26401123046875,-1.2445067243754864,1.8778437906354664,2.0150687798067928
1646167908086992100,2.2739921875,-2.315146097489446,2.1961785034120083,2.919183565637469
1646167908096973000,2.28397314453125,-2.3375474605202675,1.9385007961720226,3.726421739298105
1646167908106954000,2.2939541015625,-1.3585668187975883,0.8266577444016933,3.9687694831982254
1646167908116935000,2.303934814453125,-1.1148287165176123,-0.5266565606951713,3.1791844551280137
1646167908126916000,2.313916015625,-0.46345914996080095,-1.0257394702881575,1.9375889420241117
1646167908136897000,2.32389697265625,0.9653238722920418,-1.0608762501209974,1.0199649785399436
1646167908146878000,2.3338779296875,2.424464696472883,-1.3243173431932926,0.6704331634670495
1646167908156860200,2.343860107421875,3.1629911529570816,-1.8738801477015017,0.3793032684803009
1646167908166841000,2.353841064453125,2.882245289340615,-2.6749200512439013,-0.056939172323513774
1646167908176821800,2.36382177734375,2.8938112239718436,-1.9344518130421637,-0.37965635623428967
1646167908186803000,2.373802978515625,2.6371955930054187,-1.0605331357717513,-0.6606584961667656
1646167908196783900,2.383783935546875,1.7905612285017967,-1.0961047998905182,-1.2740987295627593
1646167908206764800,2.393764892578125,-0.06520115177221596,-1.5094915397584436,-1.6237471567526458
1646167908216745700,2.403745849609375,-0.6791033035915345,-0.25894436617493627,-2.0860291526928543
1646167908226726700,2.4137265625,-1.3581108917236326,-0.5414040479719638,-1.3441297126442193
1646167908236707600,2.42370751953125,-0.9717956255894153,-1.1538427031099796,-0.7005559875953942
1646167908246688800,2.433688720703125,-0.3965620079256594,-1.1022492939949036,-0.2794653953518718
1646167908256670700,2.443670654296875,-0.3812941500365734,-1.1058557940542697,-0.23824206214696167
1646167908266652000,2.45365185546875,-0.9521133853241801,-0.4624830714702606,-0.17824746604189276
1646167908276632800,2.4636328125,-2.0036054287672043,-0.7241624155670404,0.39258155998736616
1646167908286613800,2.47361376953125,-2.4072283149898053,-1.1257856524050236,0.8706094065919519
1646167908296595000,2.483594970703125,-1.6555121220648288,-0.5012251823186874,1.521982772541046
1646167908306576000,2.493575927734375,-1.4330851764261723,0.23537527453899382,1.1240589747428893
1646167908316556800,2.503556884765625,-1.4008558084726332,0.1641997975975275,0.8059966491669416
1646167908326537700,2.513537841796875,-0.9640740183614194,-0.5027577987134456,1.5016286974288522
1646167908336518700,2.5235185546875,-1.270212535779178,-1.2649556381642817,2.3568827139787376
1646167908346499600,2.53349951171875,-2.0501399470575152,-0.8142974445223807,2.07176974119395
1646167908356481800,2.543481689453125,-2.3084826940774916,1.5733330205500125,1.4780337406992912
1646167908366462700,2.553462646484375,-2.2384932120501992,3.470785767018795,1.3423618261888624
1646167908376444000,2.56344384765625,-2.6003485021233557,3.745468385073542,1.9289014854386448
1646167908386424800,2.5734248046875,-2.8093676846563813,3.6436627920687195,2.5393235400572416
1646167908396405800,2.58340576171875,-3.4228260382309554,3.306120105475187,3.0267060749843715
1646167908406387000,2.593386962890625,-3.8495536134481427,3.2161902437031267,4.106419712044298
1646167908416367900,2.603367919921875,-3.200343563012779,3.0118343768060205,5.786687212920189
1646167908426348800,2.613348876953125,-1.7802207440122961,2.8198019849091764,7.246745736467838
1646167908436329700,2.623329833984375,-1.0540092869609594,2.6918402063846587,7.456558699727058
1646167908446311700,2.633311767578125,-1.9531823786057532,3.01843772059381,6.72524991953671
1646167908456292900,2.64329296875,-3.488063941816985,3.31713658953011,5.968897883504629
1646167908466273800,2.653273681640625,-4.075255050712824,3.7219688515424725,6.217507902669906
1646167908476254700,2.663254638671875,-3.1765783642828462,4.669595154580474,7.575173388713598
1646167908486236000,2.67323583984375,-2.163372796875238,4.48731726397872,8.220680785238743
1646167908496216800,2.683216796875,-2.469918579919636,2.5664742895722386,8.026824100524186
1646167908506197800,2.69319775390625,-2.399831774997711,0.7425543968260288,7.728479451853037
1646167908516179000,2.703178955078125,-1.9656537376441061,-0.22167174335718154,7.026675583088397
1646167908526160000,2.713159912109375,-2.6144611986279487,-0.14605506909787655,5.676428848868608
1646167908536141800,2.723141845703125,-3.2431121528983113,0.5049947639852762,4.604707671867311
1646167908546122800,2.733122802734375,-1.907968295264244,1.2478279777526855,3.689225981108844
1646167908556103700,2.743103759765625,0.5403635990083218,2.7914667017847297,2.088212341950834
1646167908566084900,2.7530849609375,2.2455974910974503,3.964426193296909,0.07951512473626061
1646167908576065800,2.763065673828125,3.9662849729061125,5.898661733239889,-1.887219814006984
1646167908586046700,2.773046630859375,4.924722008293867,8.428709203168749,-3.343623614439368
1646167908596028000,2.78302783203125,5.068751124522089,9.592660043317078,-4.735397998572886
1646167908606008800,2.7930087890625,5.638937614864111,9.688989250737428,-5.545323511621356
1646167908615989800,2.80298974609375,4.947428345620632,8.956798427015542,-6.34342736171186
1646167908625971700,2.8129716796875,2.609744106978178,7.034705744808912,-6.294665961152314
1646167908635952600,2.82295263671875,0.27101130913086235,4.446933231142163,-5.641470932734013
1646167908645933800,2.832933837890625,-1.5484271273523569,2.5473604237794873,-4.30490814821273
1646167908655914800,2.842914794921875,-1.8456937715284525,1.2210738263398409,-2.9657822352051735
1646167908665895700,2.852895751953125,-1.5680489426672457,0.44286885493993755,-0.973967781996727
1646167908675876900,2.862876953125,-0.5071451469521969,0.8068453749507665,-0.3056486880742013
1646167908685857800,2.87285791015625,1.2958294998556374,0.6385474943846464,2.2394944980472324
1646167908695838700,2.882838623046875,3.223641728752851,0.9147411015242337,3.7281075004279614
1646167908705820700,2.892820556640625,4.258613722288608,0.3120557786375284,3.4334412480086085
1646167908715801600,2.902801513671875,4.194732494008541,-0.22767595220804213,1.2656345603391528
1646167908725782800,2.91278271484375,3.9784114640295503,-0.8538152159184217,-0.9849527018696069
1646167908735763700,2.922763671875,3.36999081236124,-1.352300744140148,-1.914478700071573
1646167908745744600,2.93274462890625,3.0721342394679785,-1.8121248255342244,-2.922667023839056
1646167908755725800,2.942725830078125,3.31724881773293,-2.2871306939691305,-3.8862460982903837
1646167908765706800,2.952706787109375,4.115521010127663,-2.684293444266915,-4.655284305155277
1646167908775687700,2.962687744140625,4.83576332964152,-3.080898560681939,-4.959127551242709
1646167908785668900,2.9726689453125,4.822783728820085,-3.4164193860590455,-4.7749219074487685
1646167908795650800,2.98265087890625,5.4176107394218445,-3.786810449287295,-4.655495317557454
1646167908805632000,2.992632080078125,5.668513253438473,-4.540743733739853,-5.146635743713379
1646167908815612700,3.00261279296875,5.637879630243778,-5.371464489796757,-6.352476345086098
1646167908825593600,3.012593505859375,5.700436331921815,-6.103373573967814,-7.446884862452745
1646167908835574800,3.02257470703125,5.585512898668647,-6.844234026357531,-8.034920313218235
1646167908845555700,3.0325556640625,4.69021065710783,-7.309307114320993,-8.264614619511365
1646167908855536600,3.04253662109375,3.8056612802296876,-7.029982223418354,-7.911395640358329
1646167908865517800,3.052517822265625,3.0704233438968656,-6.4112389151781795,-6.916738706076145
1646167908875499800,3.062499755859375,2.084925283104181,-5.746864905619621,-5.995390753632783
1646167908885481000,3.07248095703125,0.9305296222865581,-5.043222715511917,-5.369973958978057
1646167908895462000,3.0824619140625,0.11517302410006522,-4.074482312774658,-4.996674314826727
1646167908905442800,3.09244287109375,-0.8781190515697002,-3.1165280924677847,-4.321260148076713
1646167908915423700,3.102423828125,-4.410417271910608,-2.3092811509788036,-2.627174257467687
1646167908925404700,3.11240478515625,-9.626965633022785,-0.042479543811082834,0.3346241687983274
1646167908935385600,3.122385498046875,-10.163877045750617,4.5124002673089505,5.801029042005538
1646167908945366800,3.13236669921875,-9.531396304059028,10.317208827853202,9.276955094522238
1646167908955347700,3.14234765625,-8.382257833117245,13.817104954022168,10.657197154033183
1646167908965330000,3.152329833984375,-2.5098867254316803,12.785893774324654,11.082452026349305
1646167908975310800,3.162310791015625,0.3349231517449021,9.182482913145423,10.521889688920973
1646167908985291800,3.172291748046875,1.6757295651853084,3.630418695092201,8.132705564665795
1646167908995273000,3.18227294921875,1.4137386709213255,0.28700141687989233,5.279344424504042
1646167909005254000,3.19225390625,-1.2714835786283016,-0.4369277744531631,4.729303481090069
1646167909015234800,3.20223486328125,-2.951740850371122,0.4928916537374258,5.070527486544847
1646167909025215700,3.2122158203125,-0.49326545548588036,1.300196462893486,2.8317288618072864
1646167909035196700,3.22219677734375,0.3274341111637652,0.44913785220682617,-0.6815083919718861
1646167909045177600,3.232177490234375,2.1549553894028066,0.7274164489269256,-2.6808710686028
1646167909055159800,3.242159912109375,5.340595304280519,3.6324428943961857,-4.22761301934719
1646167909065140700,3.252140625,1.991793848811835,8.404392508035897,-6.834587077090144
1646167909075122000,3.262121826171875,-6.751661541122198,10.307149206131696,-7.724605240768193
1646167909085102800,3.272102783203125,-2.8816835638046263,5.726903483086824,-8.161943349587917
1646167909095083800,3.282083740234375,4.360525113755465,-2.111892200484872,-10.815595571875571
1646167909105065000,3.29206494140625,1.8057113052301108,-5.574703919884562,-12.483934442287683
1646167909115046000,3.3020458984375,-0.2992581102542579,-6.225933201187849,-12.256304082787036
1646167909125026800,3.31202685546875,2.8363375246465203,-4.508459420728683,-10.296123954248428
1646167909135007700,3.3220078125,7.563398779767751,-2.272209603691101,-6.2868900664538145
1646167909144989700,3.33198974609375,9.236211580723523,0.23982757777273653,-4.33351815662533
1646167909154971000,3.341970947265625,8.227332059821485,1.0814473289847373,-3.3146108704447745
1646167909164951800,3.351951904296875,6.689736123085021,1.3706196601629257,-2.539972651615739
1646167909174934000,3.36193408203125,4.96731319578588,2.198424236512184,-1.121779047112167
1646167909184915000,3.3719150390625,2.845211735975742,2.698391527724266,0.887217865435034
1646167909194896000,3.381895751953125,0.8020002730071544,2.040351981884241,2.851996573810279
1646167909204876800,3.391876708984375,-0.6718816087096929,0.647722149965167,4.044118154171109
1646167909214858000,3.40185791015625,-1.4383154782950878,-0.7282230891346931,4.3881215612113476
1646167909224839000,3.4118388671875,-1.5036545041680336,-2.157168097016215,3.6086981539323926
1646167909234821000,3.421821044921875,-1.375057350349426,-2.3182974011272193,1.8833453106611966
1646167909244802000,3.431802001953125,-0.6966694284856318,-1.6125708059608936,0.395260496873036
1646167909254783000,3.441782958984375,0.8295838609814643,-1.0069792402386666,-0.2543376760970801
1646167909264764200,3.45176416015625,2.086495308899879,-1.0076426725834609,-0.7587559553686529
1646167909274745000,3.4617451171875,3.290603387391567,-1.0672411089777947,-1.7597829361394046
1646167909284726000,3.47172607421875,2.3931202946603296,-1.766919656151533,-1.559836994639039
1646167909294707000,3.48170703125,1.3178558920942247,-2.187519396138191,-1.338091601523757
1646167909304687900,3.49168798828125,0.8888999733030796,-2.603039640903473,-0.8948232258722185
1646167909314668800,3.501668701171875,0.27318565749526025,-2.305442011207342,-0.4378834677428007
1646167909324651000,3.511651123046875,0.19889643244743346,-1.5019313336372375,0.1286111823439598
1646167909334632000,3.5216318359375,-0.14614830033928156,-0.95465927041471,1.1045996565133334
1646167909344613000,3.531613037109375,-1.0546154361605644,-0.6427624817311763,1.5999056779161094
1646167909354594000,3.541593994140625,-1.914886550220102,-0.4224415684610605,1.8993316920831798
1646167909364575000,3.551574951171875,-2.7645126438856122,-0.1007826796978712,1.9468080212682484
1646167909374556200,3.56155615234375,-3.3911566422477364,0.09259645063281059,1.8241200914934277
1646167909384537000,3.571537109375,-3.4215146633714437,0.3015747166335583,1.6084198237612843
1646167909394518000,3.58151806640625,-3.6537186143979428,0.7730641013801097,1.5867726400986313
1646167909404499000,3.5914990234375,-3.636222997456789,1.5542787759900092,1.7926164074659348
1646167909414480000,3.60147998046875,-2.4069652801394463,1.591993297356367,2.4379513700336215
1646167909424462000,3.611462158203125,-1.5012462739825247,1.2227823838233947,3.0705729815006255
1646167909434443000,3.621443115234375,-2.181443583355844,1.5002140083253384,3.0751246534556147
1646167909444424000,3.631423828125,-3.040940644302964,1.7745079193234443,2.5281252696946264
1646167909454405000,3.641405029296875,-3.1121769115209577,2.4417022469997405,2.1147423292189833
1646167909464386000,3.651385986328125,-2.6618030877783894,3.4357769974797963,1.7446026104032992
1646167909474367000,3.661366943359375,-2.4003791797474023,3.8543747499942778,1.6997168822333215
1646167909484348200,3.67134814453125,-2.1572142742455003,3.9190556042194364,1.9945421246066688
1646167909494329000,3.6813291015625,-2.0356118016198277,3.153171185210347,2.858002243965864
1646167909504310000,3.69131005859375,-2.259070720654726,1.9930641610085964,4.219011779740453
1646167909514292000,3.7012919921875,-3.5430291654527184,1.060507416808605,5.026266320014
1646167909524273000,3.71127294921875,-4.788806640416383,0.8710866687148809,5.122600203609466
1646167909534254000,3.721254150390625,-4.6983635684251785,1.764815961870551,5.231850267401337
1646167909544235000,3.731235107421875,-3.4897400583356615,3.326245778658986,5.891627596819401
1646167909554216000,3.7412158203125,-2.397978986737877,4.779761748695373,6.310557357767224
1646167909564197000,3.751197021484375,-2.3035269713662565,4.4309290218025446,6.125234692642092
1646167909574178000,3.761177978515625,-3.075558953219652,2.7569752341181037,6.2073214396983385
1646167909584159000,3.771158935546875,-3.8246062191963195,0.9631891983509063,6.276405497318506
1646167909594140200,3.78114013671875,-4.331340228064358,0.1768091038018465,6.206225461155176
1646167909604121000,3.79112109375,-3.714241472160816,1.0588596496015787,5.852881978839635
1646167909614103000,3.80110302734375,-1.2542249853134155,1.6762112112224101,3.895419584827125
1646167909624084000,3.811083984375,0.39373394489288327,2.3875942247152326,1.605522056493163
1646167909634065000,3.82106494140625,1.4575661222100258,3.2213392970293757,-0.1272319298800081
1646167909644046000,3.831046142578125,1.713929239720106,4.735320549422502,-2.053388281328976
1646167909654027000,3.841027099609375,3.400112394380569,7.470096226692199,-3.8543227275460956
1646167909664008000,3.851008056640625,5.378369446879625,8.015947317200899,-4.135465481525659
1646167909673989000,3.860989013671875,6.074047526240348,7.869405341368913,-3.870106864394247
1646167909683970000,3.870969970703125,5.353384643226861,7.607434905371069,-3.7745118164673443
1646167909693951000,3.880950927734375,3.647547524547577,7.070161673593521,-3.611149346476793
1646167909703933000,3.890932861328125,1.259841071629524,5.268524924325943,-2.7970895101025697
1646167909713913900,3.900913818359375,-0.508920997518301,2.7401053478598594,-1.3541653689682482
1646167909723895000,3.91089501953125,-0.66297232606709,1.17825467531085,-0.28533406818956136
1646167909733876000,3.9208759765625,1.5142239751078188,0.822639156410098,-0.5019325999356806
1646167909743857000,3.93085693359375,3.815799812406301,0.7958511027276516,0.87404887952134
1646167909753838000,3.940838134765625,4.877524788311123,0.4721954871892929,1.2357146383717657
1646167909763819000,3.950819091796875,4.7130093488931655,-0.648154696163535,1.1330845772415399
1646167909773800000,3.960800048828125,4.510741394186019,-1.3686685260951519,1.3304746967792511
1646167909783781000,3.970781005859375,3.803709561640024,-1.6424351983487606,0.2385723170146346
1646167909793762000,3.980761962890625,3.620806817138195,-2.9489152715563773,-1.4739388726010918
1646167909803744000,3.990743896484375,2.9096862539738413,-3.9048622436940668,-2.862797077026963
1646167909813725000,4.000724853515625,2.1678817987322807,-4.6294192115366455,-3.687194767542183
1646167909823705900,4.010705810546875,1.9586299764871595,-5.071814019224047,-3.9394457735583184
1646167909833687000,4.02068701171875,2.6470433255419135,-5.05881016074419,-4.278201050812005
1646167909843668000,4.03066796875,3.8754853425621985,-5.1733168298900125,-4.974042211779952
1646167909853649000,4.04064892578125,4.2862151381805536,-5.7707022928029295,-5.6037295233607285
1646167909863630000,4.050630126953125,4.324089526283741,-5.93478518602252,-6.1886021261811255
1646167909873611000,4.060611083984375,3.933767435660958,-5.945629236119985,-7.12501320772171
1646167909883592000,4.070592041015625,3.565134614276886,-6.237230255749822,-7.801397388547659
1646167909893573000,4.080572998046875,3.2188769985690713,-6.331162338900565,-7.974101395118236
1646167909903554000,4.090553955078125,2.6502473822802304,-5.976072305178642,-7.66043759676218
1646167909913536000,4.100535888671875,1.9154829086780547,-5.540456197845936,-7.090134786564112
1646167909923517000,4.110516845703125,1.2281012407585978,-4.983720725229382,-6.4643713704288
1646167909933497900,4.120497802734375,1.0983294902026652,-4.3299733236253255,-6.266190977296233
1646167909943479000,4.13047900390625,-0.006176496677845716,-3.597086918854713,-5.568000038331747
1646167909953460000,4.1404599609375,-2.429941958840191,-1.9394798703372478,-4.094678128585219
1646167909963441000,4.15044091796875,-5.413393998509645,0.6248696821659803,-1.6073565784439443
1646167909973422000,4.160422119140625,-6.30441111009717,4.086891127970815,2.2376585147917267
1646167909983403000,4.170403076171875,-6.079392394399642,6.732215082374215,6.538930060067773
1646167909993384000,4.180384033203125,-6.180564950197935,8.619085060030221,7.852163114666938
1646167910003365000,4.190365234375,-4.6400306219220155,8.20261555171609,7.715899371743202
1646167910013346800,4.200346923828125,-1.1312918486058712,5.435743777483701,7.4858900081515305
1646167910023328000,4.210327880859375,-0.1292740301668644,4.440976368564367,7.373059747785329
1646167910033309000,4.220308837890625,0.7493535554468631,5.269538485282659,6.743778678917884
1646167910043289900,4.230289794921875,0.10763502981066703,4.987980136239528,5.711891791915893
1646167910053271000,4.24027099609375,-2.413778467285633,3.344931189906597,4.603651148551703
1646167910063252000,4.250251953125,-4.06103129504919,0.8281833465337752,5.0524534851938485
1646167910073233000,4.26023291015625,-2.333665066128969,-1.184369943320751,5.786966029861569
1646167910083214000,4.270214111328125,2.8265666567385197,-2.440761166757345,2.3657608708307145
1646167910093195000,4.280195068359375,3.211685625760257,-2.1785458160877225,-2.087316269893944
1646167910103176000,4.290176025390625,2.4685206958204504,-0.05063128608465194,-4.462391789297759
1646167910113158000,4.300157958984375,2.588696642774343,3.056495356309414,-4.3447704952627415
1646167910123138800,4.310138916015625,2.6928350626409054,6.757259507259726,-3.581184708584845
1646167910133120000,4.3201201171875,-0.006296323665231466,10.68463811866641,-3.929826589080691
1646167910143101000,4.330100830078125,-4.974888599476218,12.523119620728492,-3.4819372756302354
1646167910153081900,4.340081787109375,0.1794001432083547,6.067981358069181,-4.4111108071327205
1646167910163063000,4.35006298828125,4.20508496119678,-2.82343245036602,-7.389353879982233
1646167910173042700,4.360042724609375,3.2711709571689367,-6.727234371352195,-8.992609160587191
1646167910183023600,4.370023681640625,2.1981325600892303,-7.420294377169013,-7.875521778422594
1646167910193004500,4.380004638671875,2.2397044875361023,-7.404628606003523,-6.293468860322236
1646167910202985700,4.38998583984375,3.6049347097456454,-5.86186315767467,-5.096381474247575
1646167910212967700,4.3999677734375,4.653126250338554,-2.059576906836033,-3.161473734131455
1646167910222948900,4.409948974609375,6.062281100600957,1.699510838267207,-0.5242422660950571
1646167910232929800,4.4199296875,6.94248455722928,2.8064614418208595,1.2335381711155176
1646167910242910700,4.42991064453125,5.894206507396698,2.17469030970335,2.338456099797785
1646167910252892000,4.439891845703125,2.967817540425062,0.5350947186946868,3.0700954271167515
1646167910262872600,4.44987255859375,0.7721638646047562,-1.0186544804632662,2.3861568853884934
1646167910272853500,4.459853515625,-0.6135071611523628,-1.6758546528697014,1.4241007827207446
1646167910282834700,4.469834716796875,-0.6229746621996164,-1.975790954646468,1.0214981794565916
1646167910292815600,4.479815673828125,0.0012041333590634166,-2.02265499715209,0.22755462738331406
1646167910302796500,4.489796630859375,-0.12535773350596427,-2.441988662725687,-0.38339199909865856
1646167910312777700,4.49977783203125,0.1160673425912857,-1.9458757088541982,-0.8177487540200352
1646167910322759700,4.509759765625,0.7530909884095192,-1.0843968264400958,-1.2566454904586075
1646167910332740900,4.519740966796875,0.435571610603854,-0.0793809952288866,-1.5442998182892798
1646167910342721800,4.5297216796875,0.3323427798628807,0.14927870731949805,-0.9095271662682294
1646167910352702700,4.53970263671875,0.4706149399995804,-0.18367431339621543,-0.4323389853581786
1646167910362683600,4.54968359375,0.12797171539664268,-0.6757090580433607,-0.32010318375378843
1646167910372664600,4.55966455078125,0.2626185246430337,-0.7704577182739972,0.15008184952908193
1646167910382645500,4.5696455078125,0.25634791994094847,-0.509155975317955,0.8754238211363553
1646167910392626700,4.579626708984375,0.29233927077651023,-0.7475450447201728,1.365902568513155
1646167910402607600,4.589607666015625,-0.3458675204116851,-0.8728180225521326,1.632784741950035
1646167910412588500,4.599588623046875,-0.6048211658716202,-0.9940659826517104,1.6572715329527854
1646167910422570800,4.60957080078125,-0.9776666365146637,-0.9544809912383556,1.825650662061572
1646167910432551700,4.6195517578125,-1.3337458274044096,-0.9910048415154218,1.8574568361669779
1646167910442532900,4.629532958984375,-1.5745244222916661,-0.7758756516695022,1.4763123237341642
1646167910452513800,4.639513671875,-0.7692261306524276,0.1624304498374462,1.229768004927039
1646167910462494700,4.64949462890625,0.0679915862083435,1.4506103117227553,0.7224985740080475
1646167910472475600,4.6594755859375,-0.9837680221296846,2.393574468168616,0.5077047535963356
1646167910482456600,4.66945654296875,-2.3077580330647525,2.1645751584023234,1.5116814510181544
1646167910492437500,4.6794375,-3.1038930673003193,1.6818506784141063,2.8589915472641585
1646167910502418700,4.689418701171875,-3.6752845495179294,1.9620938532054424,3.2869898730695244
1646167910512399600,4.699399658203125,-4.032191277272999,2.3991449617773295,3.2950001610457895
1646167910522380500,4.709380615234375,-4.160459929789602,2.44824947668612,3.7393162921845913
1646167910532362800,4.71936279296875,-4.04365112118125,2.067609406644106,4.672761217395961
1646167910542343700,4.72934375,-3.28796836271286,1.862308952373266,6.781510735940933
1646167910552324900,4.739324951171875,-0.6234254747070371,1.6389491097986697,9.483156881546973
1646167910562305800,4.749305908203125,0.5276816659592092,1.161214108660817,10.87829957306981
1646167910572286700,4.75928662109375,-0.8068868760049343,0.767153416031599,10.386744720894098
1646167910582267600,4.769267578125,-2.727536958187818,1.442050573170185,9.147117585253715
1646167910592248600,4.77924853515625,-3.573142564165592,2.5457120720505713,8.35125654565394
1646167910602229500,4.7892294921875,-3.6218612946271893,3.308004604047537,8.123128173503279
1646167910612210700,4.799210693359375,-2.8946166951358316,3.443441833019256,7.258662968754768
1646167910622191600,4.809191650390625,-2.8308710759341715,2.738043154633045,5.913624909093976
1646167910632172500,4.819172607421875,-3.5548797622442243,1.3440227451384066,5.381953150585294
1646167910642154800,4.82915478515625,-3.416348074388504,-0.645431993201375,4.9378655675053595
1646167910652135700,4.8391357421875,-2.164182944214344,-1.6149007102131843,3.67944225371927
1646167910662116900,4.849116943359375,-0.89456866658926,-1.2484054853796958,3.4248268566593527
1646167910672097800,4.859097900390625,0.24999537257645277,-0.47466684573888773,2.1493781737923623
1646167910682078700,4.86907861328125,0.932659620052576,0.5877502040833235,1.0492238062500954
1646167910692059600,4.8790595703125,1.4624918881744144,2.8995144040495155,-0.8431389236032962
1646167910702040600,4.88904052734375,2.7606623981982468,5.729723216682673,-3.0460850214540955
1646167910712021500,4.899021484375,5.393026917785406,8.92166515431404,-5.21390369182229
1646167910722002700,4.909002685546875,6.909004896953702,10.417636702764034,-6.11044979596436
1646167910731983600,4.918983642578125,6.87666856149435,11.046116976642608,-6.386929818829894
1646167910741964500,4.928964599609375,5.648295810317993,10.43635075558424,-6.590478460997343
1646167910751946800,4.93894677734375,1.7718682184696197,8.742525561738013,-6.7632835898548365
1646167910761927700,4.948927734375,-4.044439641210436,6.42487113468945,-5.825031848883628
1646167910771908900,4.958908935546875,-7.538128729432821,3.6223125455260274,-3.873492122918367
1646167910781889800,4.968889892578125,-4.379408093401789,2.145678150230646,-2.5049916468665003
1646167910791870700,4.97887060546875,1.47650214721784,0.814285754084587,-1.345210932009667
1646167910801851600,4.9888515625,3.2917315146386623,-0.4963596221089363,-0.6919976372823119
1646167910811832600,4.99883251953125,3.3053415223181246,-1.9901579181730746,-0.10889525900483131
1646167910821813500,5.0088134765625,3.573879646268487,-1.4513240129500626,0.7167405950032174
1646167910831794700,5.018794677734375,4.640021269571781,-1.0264560941249132,1.089097113085538
1646167910841775600,5.028775634765625,4.790186696597933,-1.4562585467427969,0.8032295225411653
1646167910851756500,5.038756591796875,3.6528807022690772,-2.400969254595041,-0.7376175249457358
1646167910861738800,5.04873876953125,2.8331460351288316,-3.510027059561014,-2.5724314444109795
1646167910871719700,5.0587197265625,1.8936346494853495,-4.134431462302803,-4.015278428655862
1646167910881700900,5.068700927734375,1.9047360353447496,-4.483721869835257,-4.749097438101471
1646167910891681800,5.078681884765625,2.1056625123150647,-4.900121235522628,-5.155590619063377
1646167910901662500,5.088662353515625,3.1503581736162305,-5.063274154415726,-4.877489716997743
1646167910911643600,5.0986435546875,4.199030775724351,-5.438073681735992,-5.091029007303715
1646167910921624600,5.10862451171875,4.850648764084279,-5.80818826611042,-6.048153791049122
1646167910931605500,5.11860546875,5.433746466186642,-6.0069964357525105,-6.884362038606405
1646167910941586700,5.128586669921875,5.528688603162765,-5.904909687718749,-7.219280221915245
1646167910951567600,5.138567626953125,4.963610249614716,-5.689077318039536,-7.378293556785583
1646167910961548500,5.148548583984375,3.993046723103523,-5.519497580969333,-7.1768538695961235
1646167910971530800,5.15853076171875,3.0631311410620805,-5.41901709908843,-6.56040130264163
1646167910981511700,5.16851171875,1.881501728621125,-5.408530191865563,-6.035771863859892
1646167910991492900,5.178492919921875,0.5227168831586837,-4.812261750283837,-5.420422289711237
1646167911001473800,5.188473876953125,-1.5658827045440673,-3.698609018743038,-4.284395521537959
1646167911011454500,5.198454345703125,-4.440024766927957,-1.413126091980934,-1.5252864902615546
1646167911021435600,5.208435546875,-6.941838660541176,2.5697178015381095,3.946104646925628
1646167911031416600,5.21841650390625,-8.423903848713636,6.862106952178478,9.01236249332726
1646167911041397500,5.2283974609375,-9.641834700852632,11.283571980065107,11.070762757599352
1646167911051378700,5.238378662109375,-8.883046377584337,12.178586052334309,12.483337060916423
1646167911061359600,5.248359619140625,-6.8630462788552045,8.664083893185854,13.168501929569244
1646167911071340500,5.258340576171875,-3.553827038320899,5.693660554176569,10.451102919036149
1646167911081322800,5.26832275390625,-0.8283505197942257,4.516494258624315,5.971793604946136
1646167911091303700,5.2783037109375,0.766772892281413,2.5837054103583097,2.7142951992988587
1646167911101284900,5.288284912109375,0.27611645025014875,-0.01696808593571186,1.2313006213217974
1646167911111265500,5.298265625,-1.1092176717028022,-2.6504899588644504,1.848506052470207
1646167911121246500,5.30824658203125,-0.18385083900690077,-4.475185512158275,1.3274828214868903
1646167911131227600,5.3182275390625,4.669167576818168,-5.698740633919835,-3.292128989523649
1646167911141208600,5.32820849609375,2.5855332103073594,-4.614452528551221,-8.215686630213261
1646167911151189500,5.338189453125,0.7508790114484727,-1.2988824576854705,-8.21272076614499
1646167911161170700,5.348170654296875,2.46673147431612,3.849178350394964,-7.411298000764846
1646167911171151600,5.358151611328125,3.5267104833364487,8.583737267795204,-6.594611030757426
1646167911181133600,5.368133544921875,-3.556974688696861,11.200860963630676,-5.182442970153689
1646167911191115500,5.378115478515625,-7.905810533702373,12.903236543679236,-4.8529313220635055
1646167911201096400,5.388096435546875,2.9237592029899355,7.81657508393526,-6.722777391943335
1646167911211077400,5.398077392578125,6.2109723634213205,-0.2651163328081369,-8.002276519244909
1646167911221058600,5.40805859375,5.067040228950977,-5.580344556120037,-8.572655317288637
1646167911231039500,5.41803955078125,4.398419667863846,-7.253956983020902,-7.8158356637448065
1646167911241020400,5.4280205078125,6.032844578236341,-6.27367461104989,-4.658027466383576
1646167911251001600,5.438001708984375,8.30772427791953,-3.621888182634115,-1.935835376355052
1646167911260982500,5.447982421875,7.9059788760066025,-1.1079805311232804,-0.3064094433136284
1646167911270963500,5.45796337890625,6.451161175721883,0.8777478801697493,0.12221826643645763
1646167911280944600,5.467944580078125,5.341067013445496,2.8425387173742056,0.6316573695447295
1646167911290925600,5.477925537109375,4.022745695796608,4.066862485420704,1.8729221163243055
1646167911300906800,5.48790673828125,1.6799961365886031,2.976070404985547,3.1381296834230423
1646167911310888400,5.497888427734375,-1.1117664794027804,0.22578443937301634,2.962447537824511
1646167911320869400,5.507869384765625,-2.6259388704538345,-1.653022058814764,1.725995525088906
1646167911330850600,5.5178505859375,-2.085328603208065,-2.1263450887292623,0.3754789609517902
1646167911340831500,5.52783154296875,-0.07970714017702266,-1.8326158248990774,-0.8640435452703386
1646167911350812400,5.5378125,1.5269558847784994,-2.229488067817688,-1.497849617281556
1646167911360793600,5.547793701171875,1.4260288281738758,-2.176441537284851,-1.8394263816967606
1646167911370774500,5.5577744140625,1.2001684009552,-1.890949940446019,-2.076907688604295
1646167911380755700,5.567755615234375,1.1253566133379935,-1.6658353631585836,-1.2307020709067582
1646167911390736600,5.577736572265625,1.7897452359437942,-0.9716098206937313,-0.14954614435033872
1646167911400717600,5.587717529296875,2.166010159641504,-0.8035036633074283,0.6050932608112692
1646167911410698800,5.59769873046875,2.0132371804654596,-0.8674638020426034,0.7872758743450046
1646167911420679700,5.6076796875,1.477481952035427,-1.021510454416275,0.6406234238758682
1646167911430661400,5.617661376953125,-0.18719437728114424,-1.0781985563218592,0.4385474846094847
1646167911440642600,5.627642578125,-1.1541702545639128,-0.9806652338087558,0.5313240045169368
1646167911450623500,5.63762353515625,-1.8097966748476026,-0.8060124312579632,0.9819947288468479
1646167911460604400,5.6476044921875,-2.4451265223599967,-0.5820066919952631,1.7626883021920918
1646167911470585600,5.657585693359375,-3.347612976336479,-0.7217588615566491,2.075101223704219
1646167911480566500,5.66756640625,-3.662933309727907,-0.80322075471282,2.2934128429785368
1646167911490547700,5.677547607421875,-2.7350319901183244,0.43634851326048374,1.8705011727876961
1646167911500528600,5.687528564453125,-2.4600679247736927,2.0616519595444203,0.7627776851654052
1646167911510509600,5.697509521484375,-2.233147174847126,2.935848869234323,0.06367869144529104
1646167911520490800,5.70749072265625,-1.0646809031009674,2.572455117547512,0.6109630296275019
1646167911530471700,5.7174716796875,-1.3039492395557462,1.081977490338683,1.9730583148121832
1646167911540452600,5.72745263671875,-2.409785013735294,0.49053544600009913,3.6555116352945562
1646167911550434600,5.7374345703125,-2.8894506906747814,0.9320493791997432,4.494021730053425
1646167911560415500,5.74741552734375,-2.81807939890027,1.699781471902132,4.762359362995625
1646167911570396700,5.757396728515625,-2.959013471722603,2.364978488281369,5.13674797142744
1646167911580377600,5.767377685546875,-2.9914906769573686,2.6212849071681497,5.793571711736917
1646167911590358500,5.777358642578125,-2.598595228715241,2.5548797133684156,6.901682591241598
1646167911600339700,5.787339599609375,-1.4676093773186205,2.296972873547673,7.573885686990618
1646167911610320600,5.797320556640625,-1.056065050446987,1.7312509613990783,7.581021530219912
1646167911620301600,5.807301513671875,-2.3834672079131005,1.568162339913845,6.684250385150313
1646167911630282800,5.81728271484375,-4.106577240693569,2.06694831238687,5.6664902231782674
1646167911640263700,5.827263671875,-4.807376900851726,3.133812404745817,5.149911404383182
1646167911650244400,5.837244384765625,-4.126107286071777,3.9495349136352536,4.931361007916927
1646167911660225500,5.8472255859375,-3.6634850983917713,4.002342959237098,4.785846621567011
1646167911670207500,5.85720751953125,-3.5911049218356608,2.85987446757853,5.0525312266051765
1646167911680188700,5.867188720703125,-3.274105841577053,1.4757710564643143,5.331237693348527
1646167911690169600,5.877169677734375,-3.1585973019123075,0.18077742291092871,5.324183683183789
1646167911700150500,5.887150634765625,-2.7594997841596602,-0.9754980603039264,5.088178878569603
1646167911710131700,5.897131591796875,-1.7381518268287182,-0.4104512709379196,4.794384148287773
1646167911720112600,5.907112548828125,-0.5311632244646549,0.6583949351489543,3.5320109278321263
1646167911730093600,5.917093505859375,1.2302163332164286,1.4262953701555727,1.4830539069488644
1646167911740074800,5.92707470703125,2.4266285965085026,2.9409155049741265,-0.5435758390530944
1646167911750055400,5.937055419921875,2.9073586878091096,5.7519344639688725,-2.563675891025364
1646167911760036400,5.947036376953125,4.26465300245285,8.12959883082211,-4.445490631118417
1646167911770017500,5.957017578125,5.98952332290411,9.37553412669599,-5.711342925861477
1646167911779998500,5.96699853515625,6.311196240192651,10.029074607551097,-5.917156005829573
1646167911789980700,5.976980712890625,4.324264006067812,9.165390324047207,-5.51618334185481
1646167911799961600,5.986961669921875,1.4666731193818152,6.946517758268118,-4.955887546408176
1646167911809942500,5.996942626953125,-1.6280454384684562,4.408348941203951,-4.066886158557236
1646167911819923700,6.006923828125,-2.9836487312853333,2.699507380011678,-2.948960279741883
1646167911829904600,6.016904541015625,-1.9231791622690855,2.10258895008862,-1.1363489858649671
1646167911839885600,6.026885498046875,0.8960622661478816,1.5459417402774094,-1.5072421533964573
1646167911849866800,6.03686669921875,2.1943791989050805,0.8683739026248455,-0.9326489525280892
1646167911859847400,6.046847412109375,4.426031312888861,0.21530220832526684,0.15180632610097528
1646167911869828400,6.056828369140625,5.699867007601261,-0.27528467560112474,1.1394526509687304
1646167911879809500,6.0668095703125,5.555159261459112,-0.6297358268976211,1.5525681726798415
1646167911889790500,6.07679052734375,4.896572018608451,-1.1283785915076732,1.2527473139762877
1646167911899771400,6.086771484375,3.9904122829467057,-1.942312463414669,0.08643938930779695
1646167911909753600,6.096753662109375,2.4151732826448975,-2.6813258266329765,-1.6099480562418698
1646167911919734500,6.106734619140625,1.599541959170252,-3.5746816103011367,-3.3698607562407847
1646167911929715700,6.1167158203125,1.7236165209978818,-4.62348046913743,-4.361431414945423
1646167911939696600,6.126696533203125,2.5058663838744164,-5.386596592476963,-4.578102281275391
1646167911949677600,6.136677490234375,3.174773360687494,-5.953897298249602,-4.843383741517365
1646167911959658500,6.146658447265625,3.6292905678451057,-6.3441153439760205,-5.355279663193225
1646167911969639400,6.156639404296875,4.273178838735818,-6.832419669923186,-6.300597689288854
1646167911979620400,6.166620361328125,4.824611528769135,-7.372142632940411,-7.308141577672958
1646167911989601500,6.1766015625,4.785386895100772,-7.567310400253534,-7.9609806322604415
1646167911999582500,6.18658251953125,4.389365423792601,-7.78270847016871,-8.127856955590843
1646167912009563400,6.1965634765625,3.677610946638882,-7.16085725904107,-7.836404404520988
1646167912019544600,6.206544677734375,2.8418323226705193,-6.278360138517618,-6.8033163250356905
1646167912029526500,6.216526611328125,1.5943442443966864,-5.2005771772593254,-5.48020835763216
1646167912039507700,6.2265078125,0.03873451206386089,-4.051084486052393,-4.2551232498243445
1646167912049488600,6.236488525390625,-1.767401740580052,-3.1904309485465285,-3.3634254624962803
1646167912059469600,6.246469482421875,-4.2623429719448085,-1.992494252166152,-2.1944886506289243
1646167912069450500,6.256450439453125,-6.322317353665828,0.8548872290641069,0.12228884745463728
1646167912079431400,6.266431396484375,-7.709179708099365,6.111998194450139,4.738231760694086
1646167912089412400,6.276412353515625,-7.845825728338957,10.81004261392355,9.425901208886504
1646167912099393500,6.2863935546875,-6.416443498083948,13.16091951161623,11.319516569149494
1646167912109374500,6.29637451171875,-3.2562808465510606,11.821161438184976,11.098322964698076
1646167912119355400,6.30635546875,-1.2042767130568623,8.129415875470638,8.916525453338027
1646167912129336600,6.316336669921875,0.2170984440922737,4.5836739439278835,4.7899242462694644
1646167912139317500,6.3263173828125,0.827333451706171,1.7052146028667687,1.549066594299674
1646167912149298400,6.33629833984375,-0.5929540563367307,-0.8296072418570518,1.0510970527760684
1646167912159280600,6.34628076171875,-0.7433850024312734,-2.3982868836432694,3.3156162480950355
1646167912169261600,6.356261474609375,0.359314811810106,-2.0080583165228365,4.685789333534241
1646167912179243000,6.366242919921875,1.3178361644804477,-0.8018810305416584,1.498416311253607
1646167912189224200,6.37622412109375,1.9915999336749315,0.7971919959425926,-2.019445095194876
1646167912199205000,6.386205078125,2.2677695754170415,3.3512533786654473,-2.995427139623463
1646167912209186000,6.39618603515625,1.5036771543912588,6.107794313019514,-3.082478231088817
1646167912219167200,6.406167236328125,-2.51001824285686,9.035496700677275,-4.944849435043334
1646167912229148200,6.416148193359375,-8.208255018907785,9.5879774384588,-6.306173443594575
1646167912239129000,6.426129150390625,-2.0493394443295894,3.5142753646552563,-8.111439489275217
1646167912249110300,6.4361103515625,3.38560105394721,-3.067015581279993,-10.201534283971785
1646167912259091200,6.44609130859375,2.6959084787368774,-6.073565295681357,-10.307434452813864
1646167912269073200,6.4560732421875,2.48699480240494,-6.952977309671044,-9.790583831340074
1646167912279054000,6.46605419921875,5.023471136337518,-6.162180567723512,-7.717955719751119
1646167912289035000,6.476034912109375,7.633520948264002,-4.225678836414217,-3.8201299505650996
1646167912299016200,6.48601611328125,8.79432472255826,-0.027045827835798262,-1.3507250192560254
1646167912308997000,6.4959970703125,8.378405833864212,2.757340560299158,-0.07963760033845901
1646167912318978000,6.50597802734375,6.7663780487388365,3.793077108466625,0.45610111534819003
1646167912328959200,6.515959228515625,4.830926118743419,3.965252707248926,0.8215621748283505
1646167912338940200,6.525940185546875,3.036908612307906,2.280157932347059,2.085887990656495
1646167912348921000,6.535921142578125,0.6796645176708698,-0.5055336931675672,2.733179347988963
1646167912358902300,6.54590234375,-1.742310700073838,-1.7515163353145122,1.9581372245341537
1646167912368883200,6.55588330078125,-2.0878782876908777,-2.105831877532601,0.9563890898820012
1646167912378864400,6.565864501953125,-0.9874912804365158,-2.066412890335917,-0.21749657656438648
1646167912388845300,6.57584521484375,-0.2743336584866047,-1.6253075379371642,-1.2100953362077473
1646167912398827000,6.585826904296875,0.09520809443593024,-0.853823983746767,-1.8284739027887582
1646167912408808200,6.59580810546875,0.8682745339035988,0.09005436493456363,-2.1762463069736957
1646167912418789000,6.6057890625,1.350558868908882,0.050771571338176724,-2.561858320209384
1646167912428770000,6.61577001953125,0.9754314248085021,-0.2785585827052593,-1.99819538641721
1646167912438751200,6.625751220703125,1.6871897013545036,-0.7984645000964403,-1.0823214814707636
1646167912448732200,6.635732177734375,2.0813082616508005,-1.470995512625575,-0.2472074588909745
1646167912458713000,6.645713134765625,0.7485702961146831,-1.9084733221769332,0.41259646627306934
1646167912468694300,6.6556943359375,-0.02760229267477989,-1.831312925606966,1.1660779153048992
1646167912478675200,6.66567529296875,-0.4280008830886334,-1.2931611574292181,2.418964930012822
1646167912488656400,6.675656494140625,-0.6778839909296482,-0.9808581260323523,2.9834990936815737
1646167912498637300,6.68563720703125,-0.32045835386700927,-0.7016840417772531,3.14912833956033
1646167912508618200,6.6956181640625,-0.8256279629625379,-0.5756897639334202,2.626032978478074
1646167912518600200,6.70560009765625,-1.5800117676615715,-0.6346966641753912,2.225056222850084
1646167912528581000,6.7155810546875,-2.586345695734024,-0.7264946579068898,2.0289163956344125
1646167912538562000,6.72556201171875,-3.3178725025892257,-0.8484744394123553,1.7514838943496345
1646167912548543200,6.735543212890625,-2.6569196996510027,-0.43211657477915283,1.6184455432131886
1646167912558524200,6.745524169921875,-2.146094329816103,0.5236567943572997,1.242269466842711
1646167912568505300,6.75550537109375,-2.525475924229622,1.516947700983286,0.8143988590702415
1646167912578486300,6.765486328125,-3.209790605793893,2.019275291585922,0.9191403593964874
1646167912588467200,6.77546728515625,-3.5113749670386314,1.8692419665068387,1.6856702367022633
1646167912598448400,6.785448486328125,-3.6740623142465947,1.7819371925413607,2.7870184902042148
1646167912608429300,6.79542919921875,-3.407329193891585,2.2074662056237457,3.2727748852342367
1646167912618410000,6.805409912109375,-2.970088992488384,2.586843123862147,3.362309610208869
1646167912628391200,6.81539111328125,-2.4773121973022816,2.592884157592058,3.8500171393066642
1646167912638372000,6.8253720703125,-1.8920155238509178,2.2208009034931657,5.046398422938585
1646167912648354300,6.835354248046875,-1.2310555605195461,1.7153496279120444,7.045732750257849
1646167912658335200,6.845335205078125,-1.3482080679990351,1.3503273982405661,8.84240223250687
1646167912668316200,6.855316162109375,-2.269509112560749,1.1832301256358624,9.18914529364407
1646167912678297300,6.86529736328125,-3.1554584193646904,1.566498790615797,8.755826941859722
1646167912688278300,6.8752783203125,-3.6961288923650977,2.694723068344593,8.377593932959437
1646167912698259200,6.88525927734375,-3.658833473193645,3.6694168265283107,7.941788440534472
1646167912708240400,6.895240478515625,-3.025297084969282,3.5654578548818825,6.927377004468441
1646167912718221300,6.90522119140625,-2.412852730742842,2.2387223446309563,5.994699848759174
1646167912728202000,6.915201904296875,-2.1605577394545077,0.11715338426232337,5.2897372237026685
1646167912738183200,6.92518310546875,-3.122719348323345,-1.1434843907028436,4.1799446747213596
1646167912748164000,6.9351640625,-3.2760593137323855,0.898608297368884,3.7070135667338966
1646167912758145000,6.94514501953125,-1.19745263919048,2.144704336762428,2.058061826097965
1646167912768126200,6.955126220703125,0.11134436918999999,2.4297324077427387,0.407171810875833
1646167912778108200,6.965108154296875,0.5991992343366146,3.488994792926311,-1.5971750839084387
1646167912788089300,6.97508935546875,0.9179284993886947,5.500435153102875,-3.4757673548236485
1646167912798070300,6.9850703125,2.3531658854126927,8.417204058814049,-5.2818075997471805
1646167912808051200,6.99505126953125,3.869945244091749,9.639024319607019,-6.579497632777691
1646167912818032400,7.005032470703125,4.967558694979548,9.648726798453927,-7.341234868979454
1646167912828013000,7.015012939453125,4.353804281067848,8.12413355115354,-7.413444365143776
1646167912837994000,7.024993896484375,2.7590181381225585,5.192879023972154,-6.7418848279953
1646167912847975200,7.03497509765625,1.206795564009994,3.004164280569553,-5.933576394754648
1646167912857956000,7.0449560546875,-0.9263274944216012,1.5261632730960846,-4.824006548613309
1646167912867937000,7.05493701171875,-2.422084377207607,0.8293693414479494,-2.8885405900925396
1646167912877918200,7.064918212890625,-2.0260158518873155,0.7726905918926,-0.76679261989519
1646167912887899100,7.074899169921875,-0.5262370201088488,0.6857733559399842,-0.5223575483269989
1646167912897881300,7.08488134765625,0.6911328371465206,0.22169687779843805,0.20208353805094956
1646167912907862300,7.0948623046875,1.6281506524085998,0.3426677745223045,0.7665832149282097
1646167912917843200,7.10484326171875,3.3258594096899032,0.5107517200767994,1.4779191744089126
1646167912927824400,7.114824462890625,3.9100527980744837,0.699237233147025,2.2787125558443364
1646167912937805000,7.12480517578125,3.189989634519815,-0.023496026399731636,1.584087346537411
1646167912947786000,7.134785888671875,3.4224528210043905,-0.7732149080276489,-0.5797749874204396
1646167912957767200,7.14476708984375,2.8612428333222866,-1.286453184223175,-2.7688150172546506
1646167912967748000,7.154748046875,1.7712160381712019,-2.054816560566425,-4.204178075484931
1646167912977729000,7.16472900390625,2.00669053530097,-3.0893139223277566,-4.741541323633491
1646167912987710200,7.174710205078125,2.586307701811194,-4.047071158757806,-4.888932317510247
1646167912997691100,7.184691162109375,3.2103570075049994,-4.627875489225984,-4.948922383570671
1646167913007672000,7.194672119140625,3.886745572245121,-5.470311232995987,-5.317865586078167
1646167913017653200,7.2046533203125,4.437199480374157,-5.966801788008213,-5.9827288404583925
1646167913027635200,7.21463525390625,4.948191146686673,-6.422680931168794,-6.575018441537022
1646167913037616000,7.2246162109375,5.395151070332527,-6.785306621092557,-7.050545703497528
1646167913047597000,7.23459716796875,5.052885446870326,-6.619247459363937,-7.2481783996194595
1646167913057578000,7.244577880859375,4.995262109941244,-6.330321796423196,-6.917500338098407
1646167913067559200,7.25455908203125,5.043701438939571,-6.006721125942469,-6.292948051318526
1646167913077540000,7.2645400390625,4.285479809643328,-5.37781941178143,-5.775670728865266
1646167913087521000,7.27452099609375,3.6683392604246734,-5.05632886532247,-5.048969150209427
1646167913097502200,7.284502197265625,2.8184084847241637,-5.07262942726016,-4.66632913852185
1646167913107483100,7.294483154296875,-0.3222185684725642,-4.779793312877416,-4.491180953669548
1646167913117464000,7.304464111328125,-6.225988146245479,-2.9968589259922505,-3.219332633382082
1646167913127445200,7.3144453125,-11.591340290641783,1.7929729658186435,1.1510972037941216
1646167913137426200,7.32442626953125,-11.653715790534019,9.498667754411697,8.538845402145386
1646167913147407000,7.334406982421875,-10.872560737156867,16.942252406275273,13.760360738015175
1646167913157389000,7.34438916015625,-8.767824838167428,17.543877406454087,12.413819872575997
1646167913167370000,7.354369873046875,-5.323759904813766,9.650281042158603,9.603167408806085
1646167913177350700,7.3643505859375,-4.221951340323686,3.2437101187914608,7.189912088611721
1646167913187331600,7.37433154296875,-3.1637714896798133,0.09540858544409274,4.225608693787455
1646167913197312800,7.384312744140625,-1.5213514889001845,-1.077244032076001,1.0769780746161937
1646167913207293700,7.394293701171875,-0.9870751008510589,0.04784662380218505,-0.6546168779149651
1646167913217274600,7.404274658203125,1.1286883881092071,2.989813683655858,0.26188304997533557
1646167913227255800,7.414255859375,2.4833330650269985,3.893751651614904,1.0309688953742384
1646167913237236700,7.42423681640625,2.2254579355187714,4.092199755772948,0.5210493883378804
1646167913247217700,7.4342177734375,4.357015644329786,5.466378569722175,-0.33189167509451506
1646167913257198800,7.44419873046875,2.8724457798600196,8.013246826070546,-2.176235639449209
1646167913267179800,7.4541796875,-0.4742692247234285,7.303245622324943,-3.4282834268540143
1646167913277160700,7.46416064453125,-0.8859433154545724,1.4933406154245137,-5.85597000798285
1646167913287142700,7.474142578125,2.439327334561944,-4.710386599174142,-10.232371320784091
1646167913297123600,7.48412353515625,3.0929964102327823,-7.113335629409551,-11.928438740599155
1646167913307104800,7.494104736328125,3.2492665838748214,-7.814820349222421,-11.12065871514678
1646167913317085700,7.504085693359375,4.74116109214425,-6.140573131549358,-9.40785526458621
1646167913327066600,7.514066650390625,7.438709154781699,-2.4221248553484678,-5.568543643689155
1646167913337047800,7.5240478515625,8.716767435625195,0.06000117197632789,-3.508698733566701
1646167913347028700,7.53402880859375,7.612007620114087,0.8012368874192237,-2.98144537602216
1646167913357009700,7.544009765625,5.7813148722320795,1.2166203540623188,-2.3622061009585855
1646167913366990800,7.553990966796875,4.787123217374086,2.115456030446291,-1.4221332820400594
1646167913376971800,7.5639716796875,3.4841344934135674,3.158675043323636,-0.02128339185155928
1646167913386952700,7.57395263671875,1.8300287310153245,3.4286259566813704,2.0663491774499416
1646167913396934000,7.583933837890625,-0.3246346897035837,2.606649648094177,3.5787732635289426
1646167913406914800,7.593914794921875,-2.1053823801994325,0.8422446051120758,4.112597816157341
1646167913416896800,7.603896728515625,-2.622009714311361,-1.0279413642466069,3.5617514015793796
1646167913426877700,7.613877685546875,-2.057788269853592,-1.5241022489130496,2.417968612451851
1646167913436858600,7.623858642578125,-1.0903203712701797,-1.3439602012962102,1.430574947170913
1646167913446839800,7.63383984375,0.3168926607420668,-1.2392846058130265,0.6094038905519992
1646167913456820700,7.64382080078125,1.8334581209421157,-1.4592021989792585,-0.11830891097299753
1646167913466801700,7.6538017578125,2.5842414169311523,-1.543040758138895,-0.8445435297042131
1646167913476782800,7.663782958984375,2.188187504658103,-1.3279554074347018,-1.0409162888929246
1646167913486763800,7.673763671875,1.5012988809525967,-1.3126719135850666,-1.3472221257016062
1646167913496744700,7.68374462890625,1.2006395255982876,-1.026989762610197,-1.0725962062701582
1646167913506726000,7.693725830078125,0.1348117905497551,-1.5954232718050478,-0.3129652946978807
1646167913516706800,7.703706787109375,-0.5314157744536177,-1.6522446447014807,0.15716419987231492
1646167913526687700,7.713687744140625,-0.5130968949634581,-1.7265876457631586,1.0983499484688044
1646167913536668700,7.723668701171875,0.19728541705422104,-1.2132342187553644,1.9003063823342323
1646167913546650600,7.733650634765625,-0.002555529701709747,-0.836315215063095,2.3870953352823854
1646167913556631800,7.7436318359375,-0.46483993679471314,-0.8195797688394785,2.376966155456006
1646167913566612700,7.75361279296875,-0.12673837420940398,-0.6106231301486492,2.140426513312757
1646167913576593700,7.76359375,0.04692768232636153,-0.741024703040719,2.1678201316729186
1646167913586574800,7.773574951171875,-1.0940006672181188,-0.9499170443236827,1.64870244204998
1646167913596555800,7.7835556640625,-2.4352713371694086,-0.7379390119850635,1.083042489221692
1646167913606536700,7.79353662109375,-2.722373291814327,0.3610585867375135,0.7725094631720334
1646167913616518000,7.803517822265625,-2.398631167036295,1.8235177416861057,0.38558600201159715
1646167913626498800,7.813498779296875,-2.255578640755266,3.035705666258931,0.23242270834371445
1646167913636479700,7.823479736328125,-2.659186475539207,3.0466157673299312,0.6220229144327342
1646167913646460700,7.833460693359375,-3.3199136530280113,1.751509321051836,2.0352776012293994
1646167913656441600,7.843441650390625,-3.6056747144579884,0.6052133800595998,3.9212230113863944
1646167913666422500,7.853422607421875,-3.6823137175023555,0.8088526231199502,4.8174043738693
1646167913676404700,7.86340478515625,-3.3634231244087216,1.4663129077672958,5.054460733363032
1646167913686385700,7.8733857421875,-2.7270027051806447,1.6874807932555675,5.582116241967678
1646167913696366800,7.883366943359375,-1.9369952139146625,1.8168354874432087,6.75014587586224
1646167913706347800,7.89334765625,-1.3172412673272191,1.951198949703574,8.001978413081169
1646167913716328700,7.90332861328125,-1.2215608792044221,1.8729384829372167,8.660940334463119
1646167913726310000,7.913309814453125,-1.4397313364423812,1.882050010153651,8.465937402322888
1646167913736290800,7.923290771484375,-2.178645038678497,2.2708979365706443,7.79311295980513
1646167913746271500,7.933271484375,-2.840950571399927,2.9453835902988907,7.209567221674322
1646167913756252700,7.943252685546875,-2.916065141355991,3.762975400191545,6.68886109381616
1646167913766233600,7.953233642578125,-2.576086167526245,3.818900116509199,5.832020977118611
1646167913776214500,7.963214599609375,-2.439671471824497,2.8116403057634827,4.877355276963114
1646167913786195700,7.97319580078125,-2.6099627181649208,1.0610831708699464,4.406250507619977
1646167913796176600,7.9831767578125,-2.88098681371212,-0.697571930283308,3.858647605007887
1646167913806157800,7.99315771484375,-3.4939211434125896,-1.721538545680046,2.6318074702262875
1646167913816139800,8.003139892578124,-3.22726225733757,-0.5304670588940382,2.4977400683030484
1646167913826120700,8.01312060546875,-1.2936942413926125,1.1822983977437018,1.7018524329572915
1646167913836102000,8.023101806640625,0.9503811547040939,2.309198733392358,0.018277707229554654
1646167913846082600,8.03308251953125,2.269167751777172,3.8854584550440308,-1.6243682112604378
1646167913856063500,8.0430634765625,2.3969079965054987,5.701863149854541,-3.138267922849953
1646167913866044700,8.053044677734375,3.225089004951715,8.171572178676724,-5.098517317232489
1646167913876025600,8.063025634765625,4.602938616368174,9.694435825705527,-6.861486189931631
1646167913886006800,8.0730068359375,5.322260021644831,9.552816693228483,-7.388954651531576
1646167913895987700,8.08298779296875,4.755065114334226,8.26081931888163,-6.975240579405426
1646167913905968600,8.09296875,2.9084008903384206,6.867759863373637,-6.706907622638345
1646167913915949800,8.10294970703125,1.0420482155323028,5.86096708561778,-6.278423851403594
1646167913925930800,8.1129306640625,-2.80627497933805,4.308790250343084,-4.901839437617361
1646167913935911700,8.12291162109375,-4.972925190448761,2.6427035427719354,-1.9233841833218932
1646167913945894000,8.132893798828125,-3.0604256814956665,1.598125516501069,-0.687089553105086
1646167913955874600,8.14287451171875,-0.20176636186055838,0.6334457873314618,-0.9510318736977875
1646167913965855500,8.15285546875,2.0513193661004303,-0.41566812880337234,0.9184633369177579
1646167913975836700,8.162836669921875,2.710537892591953,-0.18830372676253318,0.665995473280549
1646167913985817600,8.172817626953124,4.811237083411217,-0.5592173525601625,0.4621759052172303
1646167913995798800,8.182798828125,6.016619419622421,-0.9082698596835136,0.7169546761453152
1646167914005779700,8.19277978515625,5.7366077154994,-1.8834668912142514,-0.2509492757678032
1646167914015760600,8.2027607421875,4.581483740407228,-3.0985873621076343,-1.9492384632855653
1646167914025741800,8.212741943359376,2.8622552252352236,-3.6318612951159475,-3.9540900927215814
1646167914035722800,8.22272265625,1.2254771758653222,-4.332715900331736,-4.688702590632438
1646167914045703700,8.23270361328125,1.1982505846351383,-4.988341370767355,-5.015313548845052
1646167914055684900,8.242684814453124,2.797145331943035,-5.636064105254412,-5.597635298138856
1646167914065665800,8.252665771484375,3.9319761683300136,-6.102842828091979,-5.868695634043216
1646167914075646700,8.262646728515625,4.641625489898026,-6.3331269169718025,-6.360560282820463
1646167914085628000,8.2726279296875,5.1684319804579015,-6.677739395821094,-7.282047935995459
1646167914095609600,8.282609619140626,5.7489890581667416,-6.90193978087306,-7.83013482273221
1646167914105590800,8.2925908203125,5.780096144092083,-7.050720475542545,-7.7363675747543565
1646167914115571700,8.30257177734375,5.0378269939482205,-6.781658035457133,-7.1813465048402545
1646167914125552600,8.312552734375,4.003243122947215,-6.257098739302158,-6.408162576472759
1646167914135533800,8.322533935546875,2.9234438534304497,-5.891054180845618,-5.418634821772575
1646167914145514800,8.3325146484375,1.6463038564756511,-5.58724191441834,-4.530804523527622
1646167914155495700,8.34249560546875,0.1908732849895954,-4.9580239739149805,-3.656842007115483
1646167914165476900,8.352476806640626,-3.2964825085580345,-3.5465555860131976,-2.5487065776914357
1646167914175458000,8.3624580078125,-8.620576759892701,-1.1659984203279017,0.18970482573211192
1646167914185439000,8.37243896484375,-10.884873106241226,2.898285154515505,5.969502279138565
1646167914195420000,8.382419921875,-8.650179286473989,10.060168833994865,11.84430032171011
1646167914205400800,8.39240087890625,-9.171739985334872,17.442424280148742,14.835266098010539
1646167914215381800,8.4023818359375,-6.485227111452818,17.70916266120076,13.983865542018412
1646167914225363700,8.41236376953125,-3.5090301574781533,10.368919141346215,10.109364534318447
1646167914235345000,8.422344970703126,-2.7020120563089844,4.259157327646017,6.193203482496738
1646167914245325800,8.432325927734375,-1.5383496777132153,1.2329974883675574,3.563621579365432
1646167914255306800,8.442306640625,-2.447967737135291,-0.42551673812270163,1.5326780618175864
1646167914265288000,8.452287841796876,-1.785991436368227,0.12566753010749815,-0.49898558669835325
1646167914275268900,8.462268798828125,-0.22063830865621564,1.9595640424668788,-1.7935703471899032
1646167914285250000,8.47225,-0.645364773184061,2.1176047329127785,-1.8812071295887232
1646167914295231000,8.48223095703125,0.36482583031654353,1.5990531527400016,-1.1147788129612803
1646167914305212000,8.4922119140625,5.167815309864283,2.1526082417547703,-0.7374734402999281
1646167914315192800,8.50219287109375,6.349407605165243,4.0491906351298095,-2.4837808087944984
1646167914325173800,8.512173828125,3.386119524863362,4.704690433359146,-4.96095359762609
1646167914335154700,8.52215478515625,0.0031260230660438535,2.211653135919571,-6.3253323175728315
1646167914345135900,8.532135986328125,-1.2581634938061237,-2.0170482631862163,-7.368032859534025
1646167914355117800,8.542117919921875,-1.3055026064775883,-5.758032196322083,-8.031900673136114
1646167914365099000,8.55209912109375,-0.044424248138070103,-6.669350337660312,-8.297804941451549
1646167914375080000,8.562079833984376,2.3161317475259304,-5.070625101700425,-7.628344422408938
1646167914385060900,8.572060791015625,5.576994661170244,-2.1122212863087655,-5.051007962560654
1646167914395042000,8.5820419921875,7.927091806662082,1.2345827117323875,-2.6388556351721286
1646167914405023000,8.59202294921875,8.061374020379782,2.1918647318661213,-2.394724368856102
1646167914415004000,8.60200390625,7.77116182475984,1.9496692559182642,-2.4847803412258624
1646167914424984800,8.61198486328125,7.218714404726028,1.9785352849185465,-1.7557041423931716
1646167914434965800,8.6219658203125,5.469842446440458,1.391001353934407,-0.5919331157911568
1646167914444946700,8.63194677734375,2.9131863710492847,0.20133213516175746,1.0845387921940535
1646167914454928000,8.641927978515625,-0.9873508490525186,-1.1749866134256124,1.6280771487809718
1646167914464908800,8.65190869140625,-3.480893319535255,-1.7698258989870548,1.0161512654706835
1646167914474889700,8.6618896484375,-2.96949979442358,-1.8161369837850332,0.7074776035521179
1646167914484871000,8.671870849609375,-1.069517237216234,-1.502594181460142,0.4218023937746882
1646167914494852900,8.681852783203125,0.4646984094321727,-1.3383031984478235,-0.02788637031316757
1646167914504834000,8.691833984375,2.211428679513931,-1.264632397559285,-0.7922826696563512
1646167914514815000,8.70181494140625,4.3385599501848215,-0.794141960722208,-1.4003908213093876
1646167914524795600,8.711795654296875,2.836918539404869,-0.815938197466731,-1.3178846797972916
1646167914534776800,8.72177685546875,1.4994295799493789,-1.1745739409714937,-1.0002443790256976
1646167914544757800,8.7317578125,0.8882441397428512,-1.5164906048655509,-0.4072404921978712
1646167914554738700,8.74173876953125,-0.25037527527213094,-1.5665630880236625,-0.1835889732003212
1646167914564719900,8.751719970703125,-0.2733669323462993,-1.5075976888358593,0.13483547281944191
1646167914574700800,8.76170068359375,0.2317196015756577,-1.356236330023408,0.735019325146079
1646167914584681700,8.771681640625,0.4563596201539039,-1.19343587782979,1.5141884654030202
1646167914594663000,8.781662841796875,0.3899542802236974,-0.7582675142645835,2.1629785368606447
1646167914604643800,8.791643798828124,-0.056205286824703216,-0.5723299321115016,2.707268661662936
1646167914614624800,8.801624755859375,-0.9720530344165861,-0.45277767001390457,2.7614591015338896
1646167914624606000,8.81160595703125,-1.9162499475277959,-0.3438239588201046,2.872840039874613
1646167914634587000,8.8215869140625,-2.5257202543795105,-0.5424474195450544,2.9835180906429883
1646167914644568800,8.83156884765625,-3.344868353803456,-0.8214958315938711,2.8170909723848103
1646167914654549800,8.8415498046875,-3.4844273388803004,-0.6150736798167228,2.3486025230199097
1646167914664530700,8.85153076171875,-2.0076902138628063,0.4349690416008234,1.944397452995181
1646167914674512000,8.861511962890624,-0.4665117424644529,1.7137644045472145,1.3078985617034136
1646167914684492800,8.871492919921875,-0.06908128114119172,1.8517822976619005,0.998649584114924
1646167914694473700,8.8814736328125,-0.5981564472854137,1.2501841854900122,1.3222171560436486
1646167914704455000,8.891454833984374,-1.6684087207779288,1.3648399077177047,1.3809626288704573
1646167914714435800,8.901435791015626,-2.8874741299048066,2.036700473639369,1.1849246545940637
1646167914724416800,8.911416748046875,-3.3750466344460843,2.8874481186807155,1.443625421271473
1646167914734398000,8.92139794921875,-3.3377883324146267,3.4052649548381564,1.864244888871908
1646167914744379000,8.93137890625,-3.008993308161199,3.4755028586685657,2.62264567412734
1646167914754359800,8.94135986328125,-1.5868611951649187,3.183572753214836,4.168947479888796
1646167914764341000,8.951341064453125,-0.11168240550532936,2.2526316275179386,6.4335582990139715
1646167914774322700,8.96132275390625,0.36567908614501354,1.404731773123145,8.00035402674973
1646167914784303900,8.971303955078126,-0.8017113730631769,1.4404992520749569,8.158926047593354
1646167914794284800,8.981284912109375,-2.2406524359107016,2.025715553766489,7.556526555910706
1646167914804265700,8.991265625,-3.4135131432235237,2.5742314795702694,7.25731564579904
1646167914814247000,9.001246826171876,-3.967956705510616,3.051207186773419,7.617581620854139
1646167914824227800,9.011227783203125,-3.3595255324482918,3.347826911348104,7.957146753185987
1646167914834208800,9.021208740234375,-2.6218986551523207,2.716704014006257,7.293057990309595
1646167914844190000,9.03118994140625,-2.495326285159588,0.922124197512865,6.589721505150199
1646167914854171000,9.0411708984375,-2.1051135001301766,-1.017411202403903,5.784632033956051
1646167914864152000,9.051152099609375,-1.4285492865622043,-1.6943752289444207,4.9655116993218655
1646167914874133000,9.061133056640625,-0.8623193518262356,-1.1408920361220836,4.13700248183459
1646167914884113700,9.07111376953125,-0.3714169722098857,-0.32654549176096914,2.4611858228877184
1646167914894094800,9.0810947265625,-0.9565724105596541,0.7769815670847893,0.6012488603428006
1646167914904075800,9.09107568359375,-0.903615896397829,2.641829098024964,-1.4163269338488578
1646167914914056700,9.101056640625,1.1086042159795761,5.438206952726841,-3.089345194248855
1646167914924039000,9.111038818359376,3.4682302373170852,7.8314874063849444,-4.0561315403088924
1646167914934019800,9.121019775390625,5.231897613674402,8.957284164705872,-4.422352916637063
1646167914944000800,9.131000732421874,5.8047115299105645,9.067457188561558,-4.806950784394145
1646167914953982000,9.14098193359375,5.839346789962053,8.803001365488766,-5.590386057662964
1646167914963963000,9.150962890625,4.3747137981057165,8.295364562562108,-6.0518362789541476
1646167914973944000,9.160944091796875,0.4853227528531104,6.988176048824191,-5.8142164403587575
1646167914983925000,9.170925048828124,-2.7603309742867945,4.873313892617821,-5.267731728121638
1646167914993905700,9.18090576171875,-3.3101351863354442,2.444973231494427,-3.828307411801815
1646167915003886800,9.190886962890625,-2.0024770092591644,1.0552274305790663,-2.0976663989946247
1646167915013867800,9.20086767578125,-0.7532138841368258,0.43491818819642064,-1.1807831708751617
1646167915023848700,9.2108486328125,1.3984592687249182,0.12764905931353568,-0.6143219846665859
1646167915033830000,9.220829833984375,2.4247874986864626,-0.5004372468113899,-0.3603624211668968
1646167915043810800,9.230810791015625,1.3345242644309996,-0.26030454861223695,-0.008981471095979214
1646167915053791700,9.240791748046876,2.685282455304265,-0.10604513027071952,0.8372688625261187
1646167915063773000,9.25077294921875,4.3275218388199805,-0.9548094925403594,0.9713955934211611
1646167915073755000,9.2607548828125,4.327660955029725,-1.9045815754353999,-0.003319499811530113
1646167915083736000,9.270736083984374,3.3208956498026847,-2.7707190973103044,-2.3462606360688802
1646167915093716700,9.280716796875,2.329726849897206,-3.3137937088429927,-4.429992617735267
1646167915103697700,9.29069775390625,1.4233449959173798,-3.797325413560867,-5.235235818186402
1646167915113678800,9.300678955078125,2.0221565461106596,-4.483645881989598,-5.364536151838302
1646167915123659800,9.31065966796875,3.1614842555254694,-4.955781163424253,-5.421746231791377
1646167915133640700,9.320640625,3.827694832861423,-5.289960511064529,-5.585476658311486
1646167915143622000,9.330621826171875,4.440750743114948,-5.923434939968586,-5.880687685132027
1646167915153602800,9.340602783203124,4.663012561319768,-5.8415860933214425,-6.552970860379934
1646167915163583700,9.350583740234375,4.698955689099431,-6.128840608179569,-6.921993557864427
1646167915173565000,9.36056494140625,4.709863452082872,-6.386869613075256,-7.211211481750011
1646167915183546400,9.37054638671875,4.413814805394411,-6.473955191332101,-6.953846493721008
1646167915193527300,9.38052734375,3.8208196863949295,-6.459912052932381,-6.273309869390726
1646167915203508200,9.39050830078125,3.3899209629729388,-6.050939622375369,-5.454746584117412
1646167915213490200,9.400490234375,2.56604349693954,-5.534190707710385,-4.938789696612954
1646167915223471000,9.41047119140625,1.1191771940506994,-4.920013099950552,-4.416140033471584
1646167915233452300,9.420452392578126,-0.7758487636625766,-4.091738568001985,-3.6472611088216302
1646167915243433200,9.43043310546875,-4.394617937493324,-2.4095026896625757,-1.8107618666179477
1646167915253414100,9.4404140625,-8.11109929753542,1.194422550779581,1.32784727088511
1646167915263395300,9.450395263671876,-8.662290580028294,5.970253389766812,6.897490984770656
1646167915273376300,9.460376220703125,-9.52682183575034,11.79039805113077,11.657747822529076
1646167915283357200,9.470357177734375,-7.787778028517961,15.012605363166331,14.013567437320948
1646167915293338400,9.48033837890625,-5.2777136084318155,12.16338263798356,14.043832811725139
1646167915303319300,9.4903193359375,-3.640964931286871,6.830001502865552,10.790336042934655
1646167915313300200,9.50030029296875,-0.5254185433328151,3.0611691933393477,6.08351794989705
1646167915323281400,9.510281494140624,0.0825201700374484,0.9661094697117805,2.6215295295789836
1646167915333262000,9.520261962890626,-0.9396684759013354,-1.0816004737198353,2.0794027202904224
1646167915343243000,9.530242919921875,-0.1888216131567955,-1.412922678363323,2.454126552025974
1646167915353225200,9.54022509765625,1.0803425826132298,-0.4450321704536676,1.6935007841974496
1646167915363206100,9.5502060546875,0.20673691681474446,-0.2543640526473522,0.5153402169108391
1646167915373187300,9.560187255859375,0.7748365178801119,1.1598521726578472,-0.46948345175161954
1646167915383168300,9.570168212890625,4.702322535184026,4.999753576141596,-1.21937812833786
1646167915393149200,9.580149169921874,5.508597416770458,9.421938734996319,-3.001965893742442
1646167915403130400,9.59013037109375,-1.071073672877997,10.888211895275115,-5.290770658403635
1646167915413111300,9.600111328125,-5.589286571988463,8.184846670791506,-6.320167482155561
1646167915423092200,9.61009228515625,-1.6754415420241653,0.9869295549005269,-8.925971911597252
1646167915433073400,9.620073486328126,1.6111967411287127,-5.821656234970688,-11.13796407021284
1646167915443054000,9.63005419921875,2.166518839816004,-8.285692478853464,-10.66024485116601
1646167915453035000,9.640034912109375,3.392787166059017,-7.281296240845323,-9.801329097238183
1646167915463016200,9.65001611328125,5.89064033934772,-5.019847100621462,-6.895266878980398
1646167915472997000,9.6599970703125,8.659936125856637,-2.064328485277295,-4.470582986798882
1646167915482978000,9.66997802734375,9.155728761732577,-0.048373862546682356,-3.9027401369735597
1646167915492959200,9.679959228515624,8.650988264769316,0.508404280167818,-3.0153748258918522
1646167915502941200,9.689941162109376,7.911024468958377,1.7842688503593205,-2.1218698430113494
1646167915512922400,9.69992236328125,6.030044718384742,3.468412608146667,-1.3375542797766624
1646167915522903300,9.7099033203125,2.942460980850458,4.373875009194016,0.37032318562380967
1646167915532884200,9.71988427734375,-0.5433720601093024,2.9760411788910623,2.1600661565452812
1646167915542865200,9.729865234375,-3.197628751096129,0.556788079586625,2.5056179620712995
1646167915552846000,9.73984619140625,-3.816061678212881,-1.0090367572903634,1.9868442635804413
1646167915562827000,9.749826904296874,-2.5139655191779133,-1.9869629215240476,1.4359478723809123
1646167915572808200,9.75980810546875,-0.5082966916074976,-2.179454747626185,0.955103214789927
1646167915582789000,9.7697890625,0.8189690165299922,-1.466717396914959,0.2405862141203135
1646167915592770000,9.77977001953125,1.6803507952451704,-1.2739514300465582,-0.30994127070158717
1646167915602751200,9.789751220703126,3.7375603884279727,-1.207800503268838,-1.2241893280118703
1646167915612732200,9.799732177734375,4.9043847381860015,-0.444330159664154,-1.7748560021087527
1646167915622713300,9.80971337890625,2.4265081849992276,-1.6114777500271795,-1.1331976822271943
1646167915632694300,9.8196943359375,0.7649053448438644,-1.3401403507471084,-0.5373223316162824
1646167915642676200,9.82967626953125,0.19086627072691917,-1.2164356451451779,0.484051052416861
1646167915652657200,9.8396572265625,-0.10366850079987197,-1.115523201587796,0.9606202246457338
1646167915662638000,9.84963818359375,-0.3000702303547412,-1.2431798596858978,1.3890902596160768
1646167915672619000,9.859618896484376,-0.06504340392723679,-1.1371306377619503,1.9886495594367384
1646167915682600200,9.86960009765625,0.033352745960280296,-0.719974316227436,2.276201011414826
1646167915692581000,9.8795810546875,-0.20098551368117332,-0.5213935256004333,2.2527397640675306
1646167915702562300,9.889562255859374,-1.8300724240265787,-0.4557505483448505,2.1339690077364444
1646167915712543200,9.899543212890626,-3.3369279161930083,-0.6413263114482164,2.394718085245788
1646167915722524200,9.909524169921875,-3.3998224715232848,-0.5210533338606357,2.54211492434144
1646167915732505300,9.91950537109375,-2.657215467727184,0.09019698827564716,2.052842045623064
1646167915742486300,9.929486328125,-1.810858312729746,1.311914373216033,1.2770546567589043
1646167915752467200,9.93946728515625,-1.4415759413957594,2.7937200336694716,0.6365235873416066
1646167915762448400,9.949448486328125,-1.1615095844760537,3.561249297276139,0.6521307601876557
1646167915772429300,9.95942919921875,-1.134873944876343,2.229442475110292,1.1554347215417773
1646167915782410200,9.96941015625,-1.660896883843094,0.7238251464366913,2.2299862265981734
1646167915792391400,9.979391357421875,-2.448433454950899,0.6935287923723459,2.9513416219204665
1646167915802373000,9.989373046875,-3.497718197607994,1.6626707616478205,2.9003274739980696
1646167915812354300,9.999354248046876,-4.323037386882305,2.766277899992466,2.764582201990485
1646167915822335200,10.009335205078125,-4.04777200050354,2.891546786171198,3.64347632958591
1646167915832316200,10.019316162109375,-2.760855874943733,2.487375618416071,5.678022840061783
1646167915842297300,10.02929736328125,-1.0948868024028837,2.3900509702175854,8.653855929160118
1646167915852278300,10.0392783203125,-0.27530031156167384,2.0872364826560017,10.206427901232242
1646167915862259200,10.04925927734375,-1.2198458919800816,1.875160835161805,9.72895359685719
1646167915872240400,10.059240478515624,-3.0727684457182884,2.2278882314056156,8.925671467345952
1646167915882221300,10.06922119140625,-4.176240559506416,2.7366812186300753,8.292379993793368
1646167915892202200,10.0792021484375,-4.093932863175869,3.102012075859308,7.753467762637138
1646167915902183200,10.08918310546875,-3.257505419909954,2.7624083650827407,6.711020903176069
1646167915912164000,10.0991640625,-2.814782695442438,1.4444354224801064,5.813156117650866
1646167915922145000,10.10914501953125,-2.2672259700596333,0.036732524591684336,5.422491497200727
1646167915932126200,10.119126220703125,-2.0423124683022498,-0.9591425533086061,4.474586961743236
1646167915942107100,10.129107177734374,-2.550892105036974,0.16414134540855885,3.406562301172316
1646167915952089300,10.13908935546875,-1.5410886011578142,2.1434750872284174,1.663769955061376
1646167915962070300,10.1490703125,-0.3100772085735574,2.9736574986249207,-0.49449412049800157
1646167915972051200,10.15905126953125,0.6275801101684569,3.7470477632194754,-2.2437337430521844
1646167915982032400,10.169032470703126,0.7716337763160467,5.14169127304852,-4.077847113032639
1646167915992013300,10.179013427734375,1.0431137989372015,7.587433150827884,-6.009430969423056
1646167916001994200,10.188994140625,2.1179583686560393,8.936541820928454,-7.608793918764591
1646167916011975200,10.19897509765625,4.0106326486766335,8.692714359864592,-8.395968378561735
1646167916021956000,10.2089560546875,5.290597639924288,7.103648932653665,-8.200388523316382
1646167916031937000,10.21893701171875,4.164467119604349,5.006484930223226,-6.866761499986052
1646167916041918200,10.228918212890624,1.710445489257574,3.5807635605633257,-5.236391417962312
1646167916051899100,10.238899169921876,-0.17695333457812665,2.9918986732363697,-3.6722611100435256
1646167916061880000,10.248880126953125,-2.059812761418521,1.8721634069114923,-1.7328768090352415
1646167916071861200,10.258861328125,-3.3222727833747863,0.9834498960912227,0.2798236342050135
1646167916081842200,10.26884228515625,-0.8419199032023549,0.4867518358081579,0.36705548906475305
1646167916091823000,10.278822998046875,1.2177402980029581,-0.10125438886284828,-0.32654987567514177
1646167916101805300,10.288805419921875,3.2819244063735007,-0.6885381444782018,0.05415171529576182
1646167916111786200,10.2987861328125,3.5471880386978385,-0.8646025673925876,1.36225632096529
1646167916121767200,10.30876708984375,3.11584653994441,-1.3188275136053562,1.0028086765557527
1646167916131748000,10.318748046875,3.993085301548242,-1.4653192205548287,0.16944208216518164
1646167916141729000,10.32872900390625,3.3657840083211656,-2.1176088245660067,-1.6374924812495708
1646167916151710200,10.338710205078126,2.403119126105308,-2.760149187979102,-3.8349455346420407
1646167916161691100,10.348691162109375,1.2747808666080236,-3.4661703821778294,-4.821210195893049
1646167916171672000,10.358672119140625,1.4766601142585276,-4.173785567569732,-4.7065676254078745
1646167916181652500,10.368652587890624,3.032378567662835,-4.751500699850917,-4.285136987555027
1646167916191633400,10.37863330078125,4.805762743653356,-5.412679128238558,-4.232564212013781
1646167916201614600,10.388614501953125,6.170655550602078,-6.093452483934164,-5.163105232477188
1646167916211595500,10.398595458984374,6.2727475593328474,-6.506250025737285,-6.347974357491731
1646167916221576400,10.408576416015626,5.9015925259947775,-6.03225070399642,-6.705533411675691
1646167916231557600,10.4185576171875,5.920650277686119,-6.13046090285778,-6.6432046735346315
1646167916241538600,10.42853857421875,5.283742367202043,-5.960728021052479,-6.79822747746408
1646167916251519500,10.43851953125,3.9224142669975754,-5.451441697353125,-6.471479156607389
1646167916261501400,10.44850146484375,2.469221537566185,-4.84524865860641,-5.888166642710567
1646167916271482400,10.458482421875,0.7632382884144783,-4.053295732361078,-5.490747287303209
1646167916281463600,10.468463623046874,-1.216931319707632,-2.9607822349607944,-4.867155954509974
1646167916291444500,10.478444580078126,-3.829000654762983,-1.9603274280548095,-2.5759184097439047
1646167916301425400,10.48842529296875,-7.749127103084326,0.15167057089209557,2.0791133819550276
1646167916311406600,10.498406494140625,-7.444920868903398,4.6801066117227075,7.393767604771256
1646167916321387500,10.508387451171876,-7.400934427660704,9.255007466608285,10.328946027398109
1646167916331368400,10.518368408203125,-8.77034062038064,10.762067395305634,10.736583409959078
1646167916341349600,10.528349609375,-5.843627828282117,6.9414955461919305,10.554560955423115
1646167916351330600,10.53833056640625,-3.578239302782714,4.091026620340347,8.416088791048526
1646167916361311500,10.5483115234375,-3.7879771549791097,2.8875661921024323,5.307840451148152
1646167916371292700,10.558292724609375,-4.224976241102814,2.654142051631212,2.747567354303598
1646167916381273600,10.568273681640624,-3.2241987781137227,2.530051561582088,1.4496736153945327
1646167916391254800,10.5782548828125,-1.4862636627756058,1.5558821195334196,1.176059795615077
1646167916401235500,10.5882353515625,0.7380839734137058,1.2929776175558567,1.273277184046805
1646167916411217400,10.598217529296875,2.5053005666851997,2.315035768982768,0.3029164866313338
1646167916421198600,10.608198486328124,1.1695102278411387,3.258454098936915,-1.4349416179478167
1646167916431179500,10.618179443359375,-0.1388929223835468,3.450291260522604,-2.895388556291163
1646167916441160400,10.628160400390625,2.537291741968691,4.563782079499959,-2.7515762976840135
1646167916451141600,10.6381416015625,3.7038755609691143,7.755622310322523,-2.1906913041725753
1646167916461122600,10.64812255859375,0.01832286154553294,9.02293474074602,-1.8836536459580062
1646167916471103500,10.658103515625,-1.1802584163486958,4.7723687158346175,-3.275465147231519
1646167916481084700,10.668084716796875,1.2757554107286035,-2.6226766537874937,-7.058658282804489
1646167916491065600,10.678065673828126,1.4800339746057987,-7.064019517576694,-10.766957505434751
1646167916501046800,10.688046875,0.1250797933474183,-9.110006290477514,-11.482447369724511
1646167916511027500,10.69802734375,1.0976970375180244,-7.374533911991119,-11.421177785247563
1646167916521008400,10.70800830078125,4.653649981951713,-3.6770769858926533,-8.055939720371365
1646167916530989600,10.717989501953125,8.056737592750787,0.2818167077183723,-4.7255309768140314
1646167916540970500,10.727970458984375,8.45780144214034,1.4007868348896502,-3.9108766816779967
1646167916550951400,10.737951416015624,6.778613260933756,1.2633540481865406,-3.8401583008542657
1646167916560933600,10.74793359375,5.503288788968324,1.0653589484930037,-2.985925444045663
1646167916570914600,10.75791455078125,4.203674509876966,1.2732587716072796,-1.4864508559107779
1646167916580895700,10.767895751953125,2.4909628292530774,1.567356868749857,0.45630467509627337
1646167916590876700,10.777876708984374,0.9275018719632178,2.2068810992121697,1.7843197037637233
1646167916600857600,10.787857666015626,-0.22468546515516935,2.8764842415958642,2.970382714737952
1646167916610838500,10.797838623046875,-0.5658936885189265,2.599654090118408,4.09402404859066
1646167916620819500,10.8078193359375,-0.6597497838240116,0.8504185592174529,4.33399366518259
1646167916630800400,10.81780029296875,-0.9453880956571549,-1.153390867689252,3.672968673790991
1646167916640781600,10.827781494140625,-1.1686614289920776,-2.245447268971801,2.2947093125298617
1646167916650762500,10.837762451171875,-0.7442414000649005,-2.3594798908650874,1.2900237361863254
1646167916660743400,10.847743408203126,0.7646867336571216,-1.7529238640248774,0.7598825482457876
1646167916670724600,10.857724609375,1.8959300669461487,-1.2446551929354668,0.4093120377749204
1646167916680705500,10.86770556640625,2.03198045938015,-1.6018015746653078,0.4607548959707841
1646167916690686500,10.8776865234375,2.821806310468912,-1.6421639801919459,0.3492831010088324
1646167916700667600,10.887667724609376,2.4111504568696023,-1.5183096369862557,-0.18841566270440815
1646167916710649600,10.897649658203125,1.7334534398794172,-1.7391425914317369,-0.33475247135311365
1646167916720630500,10.907630615234375,1.103839193534851,-1.9230647421091793,-0.49643853256404397
1646167916730611500,10.917611572265624,0.0069791913628578185,-1.5798673907548189,-0.49043958441019053
1646167916740592400,10.92759228515625,-0.4858241995692253,-1.4154466438829898,-0.4148012828409672
1646167916750573600,10.937573486328125,-0.5541512282770127,-0.7861983082413673,0.4766287934616208
1646167916760554500,10.947554443359374,-1.0262731387734412,-0.5913426756173372,0.8931713670119643
1646167916770535400,10.957535400390626,-1.2882932591319083,-0.6861217309862375,1.4331854219302533
1646167916780516600,10.9675166015625,-1.729502071905136,-0.9004641543686389,1.7422279902264475
1646167916790497500,10.97749755859375,-2.8240076199054718,-1.0122224015891552,1.781606645412743
1646167916800478500,10.987478515625,-3.010936551183462,-0.6654220573067665,1.8492212150022387
1646167916810459600,10.997459716796875,-2.395646598267555,0.05880524019002914,1.4445502810314297
1646167916820440600,11.007440673828125,-2.458881345337629,1.2906231633841991,0.6176809397056698
1646167916830421500,11.01742138671875,-2.550257314264774,2.7287176924049854,0.126743927167356
1646167916840402700,11.027402587890625,-2.2616158750928936,2.8120927257061004,0.7792402327317745
1646167916850383600,11.037383544921875,-1.9382152572289109,1.6817179919451475,2.6867563272491095
1646167916860364500,11.047364501953124,-2.134954511642456,1.4873101030886173,3.257085148671269
1646167916870346500,11.057346435546876,-2.4755206377103924,1.9878414579242467,2.9080846639961004
1646167916880327400,11.067327392578125,-2.7192753257989883,2.3932366145163773,2.8849001877635714
1646167916890308600,11.07730859375,-2.6351906829237937,2.55175661291182,3.2375685472965237
1646167916900289500,11.08728955078125,-2.0223057453230022,2.5812211923271415,4.143682690250873
1646167916910270500,11.0972705078125,-1.1874503736793993,2.480190675348043,5.348153172314166
1646167916920251600,11.107251708984375,-0.7565700626969337,2.333847436958551,6.369326942121982
1646167916930232600,11.117232666015624,-1.0247932754792273,2.362817510855198,6.851467484742402
1646167916940213500,11.127213623046876,-2.1934233594849704,2.264294592782855,6.786089880424737
1646167916950194700,11.137194580078125,-3.0039234575510023,2.0312112285733224,6.582614303493499
1646167916960175600,11.147175537109375,-3.361297802817821,1.8869027108818293,6.6586348823785775
1646167916970156500,11.157156494140626,-3.402323056167364,1.8312036200135946,6.811086374515295
1646167916980137500,11.167137451171875,-2.817152347183227,1.7781810548782349,6.465176841592788
1646167916990118400,11.177118408203125,-2.4340987862586974,0.933187443318963,5.887569845861196
1646167917000099600,11.187099609375,-2.3607576557159424,-0.3891518777996301,5.755542717593908
1646167917010081500,11.19708154296875,-2.761406494563818,-1.037830890098214,5.499095428931713
1646167917020062500,11.2070625,-3.07731602602005,-0.4513783246099949,5.390987520912289
1646167917030043600,11.217043701171875,-2.165466554284096,1.1162737276941537,4.777207095776498
1646167917040024600,11.227024658203124,-0.6190975285053253,2.584025143831968,3.1420772520050404
1646167917050005500,11.237005615234375,0.7142401564896106,3.6996260868310924,0.9950918185681104
1646167917059986700,11.246986572265625,1.8869512261986732,5.564969876855612,-1.756218229395151
1646167917069967600,11.256967529296874,1.8499626810193062,7.662672808468342,-3.9665196584448217
1646167917079948500,11.266948486328126,2.024158387452364,9.259262201443313,-5.752523662033677
1646167917089929500,11.276929443359375,3.6893162897408005,9.704902859184145,-7.50327252010703
1646167917099910400,11.286910400390624,4.6395898924171926,8.914335249817372,-8.098107129493355
1646167917109891600,11.2968916015625,3.6254245400667187,7.892448363304138,-8.07553114054799
1646167917119872500,11.30687255859375,1.8809961171865461,6.841242443326116,-7.806210926309228
1646167917129853400,11.316853515625,0.16609364852011202,4.810349194660782,-6.619221155878901
1646167917139834600,11.326834716796874,-1.5877771409660577,1.940467712330818,-5.259022351965308
1646167917149815600,11.336815673828125,-2.247100150745362,0.48532443335354325,-2.7953689699202773
1646167917159796500,11.34679638671875,-1.41803841394186,0.13693068239986897,-1.018924383445829
1646167917169778700,11.35677880859375,0.4922418115265667,0.12857494198679922,-0.927692206903547
1646167917179759600,11.366759521484376,1.9519179116278886,-0.20216800146400926,-0.8738498498179018
1646167917189740500,11.376740478515625,4.105751895785332,-0.5136293213397264,-0.5366507159650326
1646167917199721700,11.3867216796875,5.476986472976208,-0.9149638043642043,0.519879613906145
1646167917209702700,11.39670263671875,5.3640439844071865,-1.4155875136584042,0.4667050730794668
1646167917219683600,11.40668359375,4.5745957344591615,-2.0971534810364245,-0.3780301798045635
1646167917229664800,11.416664794921875,3.1494621015593407,-2.7448732929140327,-2.2243433984056113
1646167917239645700,11.426645751953124,1.1841244441270828,-3.176591223764419,-3.961647960755229
1646167917249626600,11.436626708984376,0.31238691028803584,-3.8799516743212936,-4.556799673266709
1646167917259607800,11.44660791015625,1.2813609756506978,-4.593160734197497,-4.509935046239197
1646167917269588700,11.456588623046875,3.070534695316851,-5.145394219219685,-4.315381611432135
1646167917279569700,11.466569580078126,4.101118683026731,-5.859877536815405,-4.217586130851507
1646167917289550800,11.47655078125,4.314923054009676,-6.19788082665801,-4.671069611047208
1646167917299531800,11.48653173828125,4.829352878077328,-6.254113001489639,-5.301933857452869
1646167917309513700,11.496513671875,5.437749856609106,-6.620597120407223,-5.893745319625735
1646167917319494700,11.50649462890625,5.48544801185131,-6.810190302458405,-6.4622612464070315
1646167917329475600,11.5164755859375,4.820564006944,-7.0865896613031625,-6.783854668718576
1646167917339456800,11.526456787109375,3.970377795177698,-7.19840110001564,-6.396739849704503
1646167917349437700,11.536437744140626,3.2600235402107236,-6.90029844340682,-5.526866648432612
1646167917359418600,11.546418701171875,1.6718039161741733,-6.10302578344345,-4.805387480600178
1646167917369399800,11.55639990234375,-0.09514204346239566,-5.430334027394652,-3.8020147404208777
1646167917379380700,11.566380615234374,-2.599368843436241,-4.193773878109455,-2.7259385830804703
1646167917389361700,11.576361572265625,-5.942731176590919,-1.4633815304905176,-1.321011287385225
1646167917399342800,11.5863427734375,-8.366936929866672,2.6781571334689853,2.094254544724524
1646167917409323800,11.59632373046875,-10.292976888394355,8.40218886051178,7.809756051570177
1646167917419304700,11.6063046875,-10.32853452398777,14.19704301327467,11.891584635454416
1646167917429286000,11.616285888671875,-7.412249602401256,15.589881519508362,12.780518511027097
1646167917439266600,11.6262666015625,-5.460399495312571,10.70679266732931,11.319495526361464
1646167917449247500,11.63624755859375,-2.8271231215775012,5.214546081379056,8.014706377229095
1646167917459229700,11.646229736328126,-0.7519920872569084,1.8039947105705736,4.327563339874148
1646167917469210600,11.656210693359375,0.32607860490158197,-0.8055512434870005,2.156660585885495
1646167917479191800,11.66619189453125,1.670564437507093,-2.4018659111738203,1.9230629885435104
1646167917489172700,11.6761728515625,2.77240544296205,-0.867138223350048,1.5228851282082496
1646167917499153700,11.686153564453125,1.7732018051609395,0.672246934890747,0.4088280536502599
1646167917509134800,11.696134765625,0.26801673042476176,1.7335972322642803,-0.9121294577211141
1646167917519115800,11.70611572265625,2.038391787727177,5.2244385298401115,-1.671383791065961
1646167917529096700,11.7160966796875,4.194242080143094,9.891743527656793,-2.310739825354516
1646167917539077600,11.72607763671875,-0.702641927023977,12.60324354327917,-3.7975428557038304
1646167917549058600,11.73605859375,-5.760847838264703,9.838910932135581,-5.014420399397611
1646167917559039700,11.746039794921876,-1.9699206013083457,0.17586451642811296,-8.364121287924052
1646167917569020700,11.756020751953125,2.3130223833337427,-7.836582099175453,-11.0042792378664
1646167917579001600,11.766001708984374,2.94596343601346,-9.979668479347229,-11.072207695710658
1646167917588982800,11.775982666015626,2.9428572866916656,-9.466610820415616,-10.721113453626632
1646167917598963700,11.785963623046875,4.8296296491920945,-6.713328011074662,-8.189499465033412
1646167917608945700,11.795945556640625,8.519442782539128,-2.186264427641034,-4.7546822524964805
1646167917618926800,11.8059267578125,9.711592712211608,0.549587354427576,-3.4962142227858304
1646167917628907800,11.81590771484375,8.366804827919601,1.6583587436676024,-3.513428684698045
1646167917638888700,11.825888671875,6.786761496075988,2.7564778059899804,-2.8183997168958186
1646167917648869600,11.83586962890625,5.055651988974213,4.051602372446656,-1.5145947081163524
1646167917658850600,11.8458505859375,2.9565584797859192,4.811292028468847,0.45423327564969657
1646167917668831700,11.855831787109375,0.7787655278921127,4.052804733973741,2.4450275920301676
1646167917678812700,11.865812744140625,-0.7176572714567184,2.259620171231031,3.4389620572566986
1646167917688793600,11.875793701171874,-1.0731354277133942,0.6414356170415878,3.3696614342764017
1646167917698774800,11.88577490234375,-1.1572001237791032,-0.6771019737064838,2.4772137053638694
1646167917708755700,11.895755615234375,-1.0040471323095261,-1.4712977104425429,1.497828428363055
1646167917718736600,11.905736572265624,-0.47935536888130004,-1.3275941729068754,0.6101377577845006
1646167917728717800,11.9157177734375,0.2931213610649109,-0.9235638749271631,-0.36745939369052644
1646167917738698800,11.92569873046875,1.3502958340585232,-1.0758183831870556,-0.9751920630946754
1646167917748679700,11.9356796875,2.198110932779312,-1.038150039049983,-1.1127978682771325
1646167917758661600,11.94566162109375,2.481062782007456,-0.9218354436993599,-0.993984734109044
1646167917768642600,11.955642578125,2.2191934682965275,-1.0591805521190165,-1.0301765759527683
1646167917778623700,11.965623779296875,1.852618748486042,-1.3587182099670172,-1.1111743587285279
1646167917788604700,11.975604736328124,0.45790155236627905,-1.435142693477869,-1.2709656922340393
1646167917798585600,11.985585693359376,0.03527129293270409,-1.4071288973927496,-1.020935869398713
1646167917808566800,11.99556689453125,-0.2693524360079318,-1.3916782302826642,-0.45797465413510796
1646167917818547700,12.005547607421875,-0.14413140755891798,-1.3403496095836163,0.06074117668867111
1646167917828528600,12.015528564453126,0.20204927045516669,-0.9712848265230655,0.8310457502275704
1646167917838509800,12.025509765625,0.10509455154761671,-0.8927987343072891,1.7256363363876939
1646167917848490800,12.03549072265625,-0.7522469388008117,-0.7852689184367656,1.9865923346459864
1646167917858471700,12.0454716796875,-1.4593921685934066,-0.8019792302191256,2.175555109839141
1646167917868452900,12.055452880859375,-2.2107949116550385,-0.8975754471898079,2.2995254806399346
1646167917878433800,12.065433837890625,-2.851786438190937,-1.001565983018279,2.086799844804406
1646167917888414700,12.075414794921874,-2.6011095496237275,-0.7879068657249212,1.6453765124976634
1646167917898396000,12.08539599609375,-1.8270424086809158,0.011050970846414565,1.1903688914746045
1646167917908377600,12.095377685546875,-1.5434252274118363,1.1781132210135459,0.6925796749539673
1646167917918358800,12.10535888671875,-1.7008828572727739,2.294102871069312,0.6987931426413356
1646167917928339700,12.115339599609374,-1.7971080197967588,2.438832829043269,1.5362449605189263
1646167917938320600,12.125320556640625,-2.2384106483332813,2.246752506351471,2.6720588165938852
1646167917948301800,12.1353017578125,-3.0812296923324465,2.2666923015743494,3.7172277944952246
1646167917958282800,12.14528271484375,-3.816413560390472,2.245110584363341,4.793566402164101
1646167917968263700,12.155263671875,-3.7498692503809927,2.0291443591713905,6.061408993941545
1646167917978244900,12.165244873046875,-2.891203379561007,1.7251368624329566,7.410203775787353
1646167917988225800,12.175225830078125,-1.7289419538043438,1.6441151142597197,8.465311963900923
1646167917998206700,12.185206787109376,-0.7402076875694096,2.1647148591339587,8.48978647994399
1646167918008187600,12.195187744140625,-1.3992397515781223,3.0627099930405617,7.799636224094033
1646167918018168600,12.20516845703125,-2.821067474800348,4.0051989331901074,7.237531917920708
1646167918028149500,12.2151494140625,-3.529848196840286,4.9520489911586045,7.146343580520153
1646167918038130700,12.225130615234375,-2.6954490445315837,5.162713602811098,7.114134086310863
1646167918048111600,12.235111572265625,-2.374231908186525,4.296919779807329,6.471601906204223
1646167918058092800,12.2450927734375,-2.467507719385624,2.677989960208535,5.86594721211791
1646167918068074800,12.25507470703125,-2.185655794223398,0.7539648486346006,5.300428129065036
1646167918078055700,12.2650556640625,-2.831924384379387,-1.2447206593871116,4.762435350841283
1646167918088036900,12.275036865234375,-4.0152246526420114,-1.7324001314342021,3.992517146271467
1646167918098017800,12.285017822265624,-3.769676359134912,-1.173899987232685,2.657460090138018
1646167918107998700,12.294998779296876,-1.8895676923073828,0.7545955477535724,1.4666437471568583
1646167918117979600,12.304979736328125,0.46716852587275204,2.9535704038858412,0.13771191417174414
1646167918127960600,12.314960693359374,2.3696657693147656,4.202719401109218,-1.2605024581477045
1646167918137941500,12.32494140625,3.018793694424629,6.442133819657564,-2.7197172243475913
1646167918147922700,12.334922607421875,4.09948757469356,8.957441985616088,-4.446446032147109
1646167918157903600,12.344903564453125,5.699818492284416,9.04600581973195,-6.337565776202082
1646167918167884800,12.354884765625,5.81829581862688,8.954315378028154,-6.784987472140789
1646167918177865700,12.36486572265625,3.9829666431158777,8.001951525074244,-6.378517964315414
1646167918187846400,12.374846435546875,1.1942110269207507,6.006885376593471,-5.5190773097306485
1646167918197827300,12.384827392578124,-1.6693921788573265,3.9628982530772685,-4.827399405921995
1646167918207808300,12.394808349609375,-3.8521477215945716,2.7337942650169134,-3.3397575866609808
1646167918217789400,12.40478955078125,-3.7291257375597953,2.1023779376864433,-2.1677206168211995
1646167918227771400,12.414771484375,-1.4289888470232486,0.8807190049350261,-2.182631331835687
1646167918237752300,12.42475244140625,0.8350074934653937,-0.13074001106619834,-1.6852321375459431
1646167918247733200,12.434733154296875,3.1099697568655014,-0.9562415711700916,-1.3555708518519998
1646167918257714200,12.444714111328125,3.3392905536711215,-1.0625894837796688,0.737953040510416
1646167918267695400,12.4546953125,3.892534092518687,-1.0434995833843945,1.7255393057540058
1646167918277676300,12.46467626953125,4.156498917204141,-1.2001970425277948,1.4209920030504464
1646167918287657200,12.4746572265625,3.74226462059617,-1.8063444885671138,0.5212304439932107
1646167918297638400,12.484638427734374,3.2386043200850483,-2.570298816296458,-1.6253306265518068
1646167918307619300,12.494619384765626,2.4519857406049965,-3.3199405410349367,-3.52834889819324
1646167918317600300,12.504600341796875,1.3481636443354188,-4.138233777195215,-4.387850635315478
1646167918327581400,12.51458154296875,1.392976453399658,-4.803205752646923,-4.620945982223749
1646167918337562400,12.524562255859376,2.2644601586081086,-5.447232555225491,-4.947611885493994
1646167918347543300,12.534543212890625,3.019745003800094,-5.788212230530381,-5.261809352335334
1646167918357524500,12.5445244140625,3.9834298767134544,-6.124852999848127,-5.815708140221238
1646167918367505400,12.55450537109375,5.352152471083403,-6.517993070501089,-6.68606532561779
1646167918377486300,12.564486328125,6.047889587154984,-6.9117024654746055,-7.654270890825987
1646167918387468300,12.57446826171875,6.043654726064204,-6.972144951477646,-8.115425928562878
1646167918397449200,12.58444921875,5.371241786956787,-6.9460659228473896,-7.759083848953247
1646167918407430400,12.594430419921874,4.356861622811854,-6.52218701505959,-7.110476148325205
1646167918417411300,12.604411376953125,3.571481352955103,-5.73189003932774,-6.299655440002679
1646167918427392300,12.614392333984375,2.768174089002609,-5.002781399530172,-5.4387330224275585
1646167918437373400,12.62437353515625,1.1466016459405421,-4.370643187665939,-4.548759866935015
1646167918447354400,12.634354248046876,-1.4410665305688977,-3.5137130545973774,-3.6889819432199
1646167918457335300,12.644335205078125,-4.82037871350497,-1.5820745454102754,-2.4500337297543884
1646167918467316500,12.65431640625,-8.646646436172723,2.2189105597019196,0.36171646612435576
