time,seconds_elapsed,z,y,x,a,ave,std
1.64617E+18,0.018278809,-0.097775168,-0.033927989,-0.027161563,0.106999264,0.118742309,0.04305133
1.64617E+18,0.02826001,-0.119329413,-0.043570846,-0.047043491,0.135465927,0.121269801,0.043029642
1.64617E+18,0.038240967,-0.070369129,-0.034096331,-0.054229603,0.09515894,0.128100973,0.049653667
1.64617E+18,0.048221924,-0.03772592,-0.016605682,-0.050077744,0.064859649,0.13741281,0.051306702
1.64617E+18,0.058203125,-0.046803691,0.004728782,-0.050183542,0.068784699,0.153252594,0.050911824
1.64617E+18,0.068183838,-0.125175363,0.042096682,-0.038958968,0.13769097,0.17182637,0.050587593
1.64617E+18,0.078164551,-0.209976922,0.038601826,-0.063147653,0.222638799,0.184477868,0.055999289
1.64617E+18,0.088145752,-0.13476839,0.044156537,-0.016104163,0.142729334,0.181951279,0.054777178
1.64617E+18,0.098126709,-0.098254038,0.002315876,0.003164602,0.098332263,0.182036366,0.054716815
1.64617E+18,0.108107666,-0.104789285,-0.046795069,0.00017068,0.114763243,0.191909445,0.047099836
1.64617E+18,0.118088867,-0.117442576,-0.054970777,-0.026113515,0.132274188,0.20411724,0.040940163
1.64617E+18,0.128069824,-0.174471455,-0.090510292,-0.053785951,0.203777648,0.212467709,0.03322384
1.64617E+18,0.138050781,-0.154590842,-0.065031567,-0.085562314,0.188277303,0.206090653,0.039757505
1.64617E+18,0.148031982,-0.161332572,-0.068107322,-0.138481419,0.223257496,0.210483371,0.039972802
1.64617E+18,0.158012939,-0.231317524,-0.021092472,-0.104062432,0.254522453,0.218393473,0.048611126
1.64617E+18,0.167993896,-0.240234405,0.010578093,-0.109454646,0.264205952,0.230628653,0.067782206
1.64617E+18,0.177975098,-0.160272395,0.054779053,-0.101331546,0.197372915,0.252691087,0.102258399
1.64617E+18,0.187955811,-0.092626261,0.002054594,-0.109687871,0.143580203,0.291971251,0.14141198
1.64617E+18,0.197936768,-0.159927381,-0.034735213,-0.109774964,0.197063048,0.326021566,0.142571526
1.64617E+18,0.207917969,-0.174612178,-0.035237318,-0.156085465,0.236841199,0.354754359,0.142639839
1.64617E+18,0.217898682,-0.16541385,-0.045815995,-0.13076573,0.215778876,0.372588648,0.137850955
1.64617E+18,0.227879639,-0.014409634,-0.01404723,-0.138553315,0.140007083,0.386897615,0.127898525
1.64617E+18,0.23786084,0.040445115,-0.040229135,-0.225088274,0.232204482,0.400781649,0.10600593
1.64617E+18,0.247841797,-0.038467386,-0.203059982,-0.22069793,0.302358516,0.424419279,0.091084388
1.64617E+18,0.257822998,-0.087538875,-0.267578339,-0.250545371,0.376874256,0.445010221,0.084175743
1.64617E+18,0.267803955,-0.297717895,-0.068024904,-0.376559523,0.484830287,0.466988104,0.09185768
1.64617E+18,0.277784668,-0.316323665,0.14714228,-0.476019429,0.590174558,0.459776079,0.092997831
1.64617E+18,0.287765869,-0.149459617,0.393063498,-0.239790753,0.484083356,0.460893237,0.094610678
1.64617E+18,0.297746826,-0.093685707,0.452170352,-0.146285955,0.484390978,0.479333732,0.113432455
1.64617E+18,0.307727783,-0.064041095,0.409723541,-0.020079496,0.41518409,0.531243758,0.19402016
1.64617E+18,0.317708984,0.176882315,0.301970438,-0.07945523,0.358868545,0.602760142,0.25898808
1.64617E+18,0.327689941,0.278252001,0.018123101,-0.001806757,0.278847426,0.676888273,0.283498125
1.64617E+18,0.337670898,0.287889452,-0.334178763,-0.158152334,0.468580775,0.732634697,0.252906017
1.64617E+18,0.3476521,0.167005064,-0.470953378,-0.092997433,0.50826794,0.752643117,0.238742291
1.64617E+18,0.357632813,0.06735095,-0.521568298,-0.281824891,0.596653089,0.747644369,0.244266061
1.64617E+18,0.367613525,0.020415304,-0.338655032,-0.235001181,0.412710031,0.730954105,0.259255012
1.64617E+18,0.377594482,-0.14636545,-0.431323379,-0.392625107,0.601346137,0.760763332,0.237143948
1.64617E+18,0.387575439,-0.200255738,-0.519868508,-0.369473948,0.668488313,0.734399495,0.266267566
1.64617E+18,0.397556641,-0.120345312,-0.802899852,-0.589799538,1.003491236,0.691421273,0.305267187
1.64617E+18,0.407537598,-0.215150817,-1.032129464,-0.407560226,1.130347929,0.605848119,0.325089705
1.64617E+18,0.417518555,-0.172155725,-1.04472591,-0.298730433,1.10014985,0.55146512,0.274323105
1.64617E+18,0.427499756,-0.132772101,-0.672630966,-0.478911644,0.83631167,0.5162402,0.218553356
1.64617E+18,0.437480713,-0.05246537,-0.33843759,-0.574299771,0.668664971,0.511448271,0.211907322
1.64617E+18,0.44746167,-0.091934626,0.085534842,-0.440741195,0.458280466,0.502536641,0.206923545
1.64617E+18,0.457442871,-0.279051919,0.320754633,0.06270517,0.429750447,0.521044957,0.210385737
1.64617E+18,0.467423584,-0.334976489,0.255615514,0.572443329,0.710802297,0.541355898,0.210395847
1.64617E+18,0.477404541,-0.252007845,0.125859838,0.186273682,0.337707769,0.541899271,0.210839311
1.64617E+18,0.487385742,-0.17051541,0.166315182,0.015631869,0.238706096,0.578115606,0.20363616
1.64617E+18,0.497366699,-0.138710405,-0.000185878,0.050914779,0.14775969,0.616173655,0.169318913
1.64617E+18,0.5073479,-0.336846229,0.143972418,0.458050057,0.58651794,0.684412708,0.081546051
1.64617E+18,0.517328613,-0.566982872,0.308790055,0.377537428,0.747900652,0.689751356,0.076557282
1.64617E+18,0.52730957,-0.561495088,0.393811686,0.388842081,0.788392379,0.702320062,0.093511987
1.64617E+18,0.537290771,-0.517610354,0.239926362,-0.101938864,0.579548677,0.735007538,0.154879646
1.64617E+18,0.547271729,-0.633206718,0.090087683,-0.069643445,0.64336362,0.814546915,0.237057198
1.64617E+18,0.557252441,-0.541853984,-0.274621243,0.177451493,0.632859858,0.922845751,0.353094822
1.64617E+18,0.567233643,-0.350495546,-0.513163457,-0.356104179,0.716236028,0.968470905,0.341978864
1.64617E+18,0.5772146,-0.061837155,-0.590526683,-0.370505045,0.699871121,0.919442918,0.404124203
1.64617E+18,0.587195557,-0.096270755,-0.553240616,-0.261098914,0.61928659,0.921020801,0.403293766
1.64617E+18,0.597176758,-0.304545403,-0.754502609,-0.164703655,0.830150217,0.927163465,0.399097167
1.64617E+18,0.607157715,-0.188733789,-0.561862899,-0.241178992,0.63990442,0.935468528,0.397854135
1.64617E+18,0.617138672,-0.192584765,-0.67462477,-0.52052668,0.873587715,0.987708384,0.389831352
1.64617E+18,0.627119873,-0.358644073,-0.688631083,-0.800613787,1.115267132,1.070791503,0.441736033
1.64617E+18,0.63710083,-0.442668802,-0.564988337,-1.172731528,1.374942445,1.112187866,0.462856254
1.64617E+18,0.647081543,-0.750285137,-0.782528095,-1.343507781,1.726351982,1.059901873,0.459742938
1.64617E+18,0.657061768,-0.542146391,-0.297706935,-0.896443813,1.089111398,0.942214024,0.423262659
1.64617E+18,0.667042725,-0.045806789,-0.184079972,-0.122770055,0.225956156,0.916631103,0.421337778
1.64617E+18,0.677024414,0.05356807,-0.703071112,-0.122377841,0.715649958,1.145340121,0.57651425
1.64617E+18,0.687004883,-0.134528297,-0.550029837,-0.377809231,0.680713229,1.289835234,0.629366317
1.64617E+18,0.696986572,-0.107969376,-0.510945781,-0.749141374,0.913200841,1.319368108,0.606608135
1.64617E+18,0.706966797,-0.115967389,-0.270977334,-1.12430915,1.162302979,1.303177561,0.619261475
1.64617E+18,0.71694873,-0.47487552,-0.750334383,-1.454831729,1.704418905,1.355782177,0.627350523
1.64617E+18,0.726929688,-0.382772917,-0.95387718,-1.132320607,1.529230767,1.300449824,0.618499734
1.64617E+18,0.736910889,-0.076588661,-0.518681344,-0.671675857,0.852082517,1.509906637,0.934468184
1.64617E+18,0.746891602,-0.12853103,-0.210253108,-0.491115584,0.549473486,1.575784926,0.90863506
1.64617E+18,0.756872559,-0.206247307,-0.675268329,-0.442531294,0.833282193,1.812873775,0.919164716
1.64617E+18,0.76685376,-0.388199107,-2.249348368,-1.051254143,2.513046339,1.857474499,0.880559941
1.64617E+18,0.776834717,0.06359189,-1.912178022,-1.003856724,2.160601083,1.82009268,0.859621705
1.64617E+18,0.786815674,0.643845089,0.287256853,-0.674985128,0.976041967,1.834970162,0.866644879
1.64617E+18,0.796796875,0.654806555,-0.361315192,-0.071585227,0.751295373,1.962599905,0.823667372
1.64617E+18,0.806777832,1.040659318,-1.261881053,0.418577587,1.688349136,2.09993208,0.717960238
1.64617E+18,0.816758789,0.994678489,-0.568241786,-0.112856272,1.151095374,2.216716063,0.736261367
1.64617E+18,0.826739746,0.564190428,-3.551633328,-0.446663571,3.623798902,2.398739197,0.672560301
1.64617E+18,0.836720459,0.645505058,-0.969742273,-0.962100526,1.510865408,2.453726122,0.783756306
1.64617E+18,0.846701416,0.483316601,-2.603748081,-1.231021951,2.920361973,2.921466069,1.304328419
1.64617E+18,0.856682617,1.129073588,-0.544785507,-0.254917741,1.27928944,3.435866855,2.020299544
1.64617E+18,0.866663574,1.082952473,1.5513889,0.998350382,2.139228146,3.987405597,2.107247758
1.64617E+18,0.876644531,0.993626422,1.2957313,1.633096438,2.3093759,4.159448736,2.017659582
1.64617E+18,0.886625732,0.796720871,0.777380796,1.958046916,2.2523394,4.127280143,2.04921742
1.64617E+18,0.896606689,-0.142083316,-0.35774201,2.089457081,2.12461712,4.005156617,2.188942252
1.64617E+18,0.906587646,-1.704498564,0.118868371,2.288748651,2.856188969,3.867356303,2.34107804
1.64617E+18,0.916568848,-1.214842165,0.931293008,2.546690854,2.971326717,3.674929702,2.490592167
1.64617E+18,0.926549805,-2.032319482,2.093226078,2.984558247,4.17366815,3.508921983,2.585475481
1.64617E+18,0.936530518,-1.913556325,5.164108272,2.822217229,6.188264873,3.239048718,2.642228839
1.64617E+18,0.946511719,-0.231276607,7.89484841,1.628477985,8.064369835,2.765899002,2.491057516
1.64617E+18,0.956492676,0.781274296,6.727108115,0.550690932,6.794676859,2.087735635,1.777093099
1.64617E+18,0.966473633,-0.312922478,3.762238903,0.802875887,3.859659535,1.509140213,0.850990338
1.64617E+18,0.97645459,-1.376130533,1.18642746,0.805956609,1.98768997,1.203877012,0.357492726
1.64617E+18,0.986435547,-0.869365252,0.386396442,0.397589744,1.031104144,1.072835321,0.277351799
1.64617E+18,0.996416748,-0.345469753,0.621570641,0.227448939,0.746613977,1.022646117,0.322154521
1.64617E+18,1.006397705,-0.693447544,0.371205887,0.499817069,0.931922963,1.008476857,0.336768153
1.64617E+18,1.016378662,-1.05826636,-0.015769816,0.774079416,1.311249525,1.00549528,0.337563772
1.64617E+18,1.026359863,-1.085054998,-0.301311097,0.952524012,1.474935497,0.997804145,0.331328368
1.64617E+18,1.036340576,-0.905969182,-0.331468335,1.091568033,1.456767719,0.979119986,0.308367916
1.64617E+18,1.046321533,-0.671611048,-0.335537192,1.040079546,1.282736165,0.939824225,0.267299684
1.64617E+18,1.056302734,-0.44149742,-0.25986908,0.868947319,1.008722635,0.892395778,0.243242014
1.64617E+18,1.066283691,-0.328023017,-0.208264565,0.707333154,0.80702752,0.858435941,0.248284574
1.64617E+18,1.076264648,-0.212713434,-0.123384972,0.631053047,0.677273065,0.833051207,0.264678428
1.64617E+18,1.08624585,-0.177970549,-0.061516253,0.494578292,0.529212105,0.812244602,0.283607709
1.64617E+18,1.096226807,-0.365572849,-0.095893154,0.472324959,0.604921377,0.804758161,0.291848532
1.64617E+18,1.106207764,-0.676706983,-0.199580908,0.56216769,0.902107195,0.791280276,0.30363992
1.64617E+18,1.116188721,-0.975153192,-0.359448229,0.665930884,1.234338171,0.75715597,0.30840498
1.64617E+18,1.126169434,-1.1142355,-0.338324192,0.55063774,1.288093913,0.693323484,0.266205664
1.64617E+18,1.136150391,-1.026318731,-0.118324766,0.253694775,1.063810099,0.627042811,0.177651444
1.64617E+18,1.146131592,-0.80537881,0.06386077,-0.029680268,0.808451695,0.571165542,0.104162046
1.64617E+18,1.156112549,-0.626457828,0.092832013,-0.21600948,0.66912427,0.558137343,0.078705241
1.64617E+18,1.16609375,-0.472695838,0.094459906,-0.271374809,0.553180184,0.583236809,0.132044648
1.64617E+18,1.176074707,-0.381402725,-0.004479191,-0.273252841,0.469207009,0.634741946,0.195485703
1.64617E+18,1.186055664,-0.400564814,-0.08172259,-0.198245001,0.4543477,0.70536576,0.244382386
1.64617E+18,1.196036865,-0.457669095,-0.088774262,-0.060762822,0.470142522,0.777445233,0.265132619
1.64617E+18,1.206017822,-0.510440901,-0.227319978,0.048417957,0.560864141,0.856433781,0.279107921
1.64617E+18,1.215998535,-0.494940549,-0.268179228,0.195820368,0.596013307,0.940555178,0.303086547
1.64617E+18,1.225979736,-0.450322824,-0.343029594,0.265563766,0.625287184,1.022839757,0.309995575
1.64617E+18,1.235960693,-0.287837429,-0.322200156,0.261532903,0.50503741,1.108703645,0.306887444
1.64617E+18,1.24594165,-0.492466706,-0.297681801,0.358854062,0.678169706,1.220313735,0.267470982
1.64617E+18,1.255922852,-0.731234546,-0.248403683,0.500210452,0.920118931,1.313843051,0.22103756
1.64617E+18,1.265903564,-0.798447695,-0.117178519,0.699906511,1.068231553,1.37092129,0.18229858
1.64617E+18,1.275885742,-0.822250595,-0.072823244,0.83682258,1.175445149,1.393386676,0.155482896
1.64617E+18,1.285866699,-0.762132373,-0.023924481,0.894170899,1.175142431,1.404585099,0.142906858
1.64617E+18,1.295847656,-0.78416651,0.051866381,0.984917923,1.260027996,1.426704316,0.121142576
1.64617E+18,1.305828857,-0.946930284,0.120547703,1.02694417,1.402078114,1.479652023,0.149185798
1.64617E+18,1.315809814,-1.026634519,0.21263445,0.956017407,1.418859094,1.588530421,0.334745734
1.64617E+18,1.325790771,-1.097073645,0.340254868,0.939517231,1.483926071,1.752391451,0.54598865
1.64617E+18,1.335771729,-1.235897886,0.299489727,1.005460945,1.621138301,1.95360206,0.744606488
1.64617E+18,1.345752686,-1.327140876,0.13857845,0.90705873,1.61346287,2.191683022,0.951984842
1.64617E+18,1.355733887,-1.343118051,0.03854805,0.646014469,1.49090132,2.478522014,1.146757356
1.64617E+18,1.365714844,-1.210356764,0.1488409,0.429459631,1.29288541,2.815953482,1.293554713
1.64617E+18,1.375696045,-1.158144492,0.482395394,0.288912493,1.28742938,3.225354958,1.390926769
1.64617E+18,1.385677002,-1.100485499,0.834440653,0.205890255,1.396334607,3.67895051,1.424201094
1.64617E+18,1.395657959,-1.232065907,1.248551616,0.354204483,1.789505058,4.158061164,1.380949212
1.64617E+18,1.40563916,-1.69796507,1.696564263,0.665566142,2.490862093,4.637226239,1.305202866
1.64617E+18,1.415620117,-2.043099235,2.082024885,0.91598964,3.057469399,5.059255109,1.222650627
1.64617E+18,1.425601318,-2.682215761,1.710679298,1.449667478,3.496032158,5.40685756,1.091178489
1.64617E+18,1.435582031,-3.081095545,1.468298529,2.089626008,4.001947923,5.668577284,0.898300632
1.64617E+18,1.445562988,-3.153574213,1.685142121,2.702271292,4.481852789,5.844782162,0.706428348
1.64617E+18,1.455544189,-3.00154007,1.732930293,3.414386711,4.865216008,5.961715869,0.550779147
1.64617E+18,1.465525146,-3.100411655,1.374580965,4.185291881,5.386900165,6.042864642,0.429726125
1.64617E+18,1.475506104,-3.323024771,1.388231889,4.576257238,5.823384902,6.055731408,0.411429511
1.64617E+18,1.485487305,-3.409479942,1.848938599,4.820923196,6.187441141,5.928398776,0.611855554
1.64617E+18,1.495468262,-3.248942466,2.618551683,5.089122881,6.581155808,5.692165983,0.868465318
1.64617E+18,1.505448975,-2.817846759,3.164183578,5.204539067,6.711150793,5.364593571,1.066558996
1.64617E+18,1.515430176,-2.495758539,3.220070885,5.107727044,6.533493916,5.011853997,1.143418959
1.64617E+18,1.525412109,-2.481102822,2.928167083,4.758312718,6.113229392,4.673412141,1.143818013
1.64617E+18,1.535393311,-2.927169011,2.517892922,4.279667616,5.763996712,4.425443744,1.071287184
1.64617E+18,1.545374023,-3.381854561,2.109818317,4.00595472,5.651189859,4.294717231,0.975444667
1.64617E+18,1.55535498,-3.649087447,1.661142821,4.018672747,5.676703737,4.23671804,0.907975123
1.64617E+18,1.565336182,-3.735674721,1.084259464,3.910320217,5.515567822,4.272825687,0.96960903
1.64617E+18,1.575317139,-3.350844798,0.233847919,3.069232381,4.550058584,4.331451297,1.056781606
1.64617E+18,1.585298096,-3.273317906,-0.620369448,1.879367639,3.825113213,4.36177574,1.066921646
1.64617E+18,1.595279297,-2.978545855,-0.337232305,1.392988728,3.305431687,4.623607723,1.214205443
1.64617E+18,1.605260254,-2.779562914,0.653555094,1.408258486,3.183755049,5.063341137,1.433628975
1.64617E+18,1.615240967,-2.04973575,1.684534218,1.696350036,3.14907536,5.35800246,1.314928533
1.64617E+18,1.625222168,-0.786617995,3.140550773,1.649492423,3.633545415,5.533857747,1.10926091
1.64617E+18,1.635203125,1.813126112,3.968993063,0.906710648,4.456731586,5.623421311,0.980946974
1.64617E+18,1.645183838,2.687215469,4.300273766,-0.059726191,5.071197951,5.581707081,1.036943964
1.64617E+18,1.655165039,3.941626332,4.337445267,-1.450841198,6.037780202,5.411471138,1.22877552
1.64617E+18,1.665145996,3.992644572,3.578603168,-2.912841211,6.101823927,5.077554118,1.447454301
1.64617E+18,1.675126953,0.951610989,2.379431377,-4.121564382,4.85330301,4.671691457,1.6571719
1.64617E+18,1.685108154,-1.336571845,1.722668426,-6.063317458,6.443433044,4.433075986,1.781006496
1.64617E+18,1.695089111,-2.223191598,1.145861641,-7.285397831,7.702765824,4.019461236,1.746038925
1.64617E+18,1.705070068,-1.165602114,1.087536878,-5.919463698,6.130368278,3.510585739,1.27693127
1.64617E+18,1.71505127,-0.787207193,1.800101795,-4.49719393,4.907628234,3.219788944,0.931648925
1.64617E+18,1.725032959,-0.527657189,2.242422953,-3.899563845,4.529181051,3.052790368,0.745139532
1.64617E+18,1.73501416,-1.011158718,2.305944116,-3.158870274,4.039589289,3.002737776,0.655733116
1.64617E+18,1.744995117,-0.786173758,1.883719989,-2.680037833,3.368838518,3.039465898,0.719923421
1.64617E+18,1.75497583,-0.003481266,1.148363979,-2.442077802,2.698610002,3.143642604,0.827399974
1.64617E+18,1.764957031,1.125017737,0.884153071,-1.458514217,2.043197318,3.330643119,0.912617552
1.64617E+18,1.774937988,2.175431337,0.672547379,-0.949736427,2.467148306,3.657609199,0.976283741
1.64617E+18,1.784918945,1.972713447,0.386640187,-1.132465276,2.307285544,4.050411807,1.185977511
1.64617E+18,1.794900146,1.944557612,-0.250584534,-1.728859682,2.614010849,4.581561382,1.447031425
1.64617E+18,1.804881104,2.110997297,-0.877629222,-2.270973632,3.222400329,5.162275892,1.686355162
1.64617E+18,1.814862061,1.778840396,-1.612289066,-2.17222918,3.237642475,5.742006837,1.902465156
1.64617E+18,1.824843262,2.165992039,-2.794921811,-1.930531717,4.02865513,6.330463475,1.946403075
1.64617E+18,1.834824219,2.608483001,-3.182687787,-1.576966262,4.406870512,6.782749547,1.883453594
1.64617E+18,1.84480542,2.900926901,-3.224696206,-0.799624338,4.410605581,7.164865637,1.745218778
1.64617E+18,1.854786133,3.155447021,-3.24478447,-0.621910102,4.568615144,7.502368129,1.487219119
1.64617E+18,1.864766846,3.277159676,-4.116805205,-0.733894267,5.312858123,7.776989414,1.131030649
1.64617E+18,1.874748047,3.502425645,-5.206408952,-1.234737172,6.395174388,7.876001632,0.937818157
1.64617E+18,1.88472998,3.72135072,-6.310736221,-2.090929346,7.618781291,7.67100746,1.365587162
1.64617E+18,1.894710938,3.86333664,-6.863547799,-2.980303513,8.421155942,7.333630654,1.71010996
1.64617E+18,1.904692139,4.487717954,-7.128466563,-3.224983206,9.019709788,7.246097798,1.674229881
1.64617E+18,1.914673096,4.328635938,-7.434339854,-3.034500967,9.122208847,7.603459775,2.284744387
1.64617E+18,1.924654053,3.82761826,-7.263893271,-2.39031722,8.551515854,8.302421819,3.426380639
1.64617E+18,1.934635254,3.364936744,-7.30375591,-1.741508298,8.228031407,9.123653974,4.268373532
1.64617E+18,1.944616211,2.533417531,-7.323722593,-0.748949505,7.785630505,9.71593822,4.507248827
1.64617E+18,1.954597412,1.79271373,-7.075870699,0.474278358,7.314827997,9.903239063,4.461830332
1.64617E+18,1.964578125,0.723828069,-6.078546007,1.501636442,6.302980298,9.727752164,4.592772065
1.64617E+18,1.974558838,-1.38243957,-3.909478213,1.298417471,4.345232674,9.408533222,4.919061489
1.64617E+18,1.984540039,-3.673242522,-1.184203939,1.767791763,4.245013229,9.251971778,5.09933374
1.64617E+18,1.994520996,-6.400062272,1.727932631,3.604575229,7.54582738,9.127880271,5.233013948
1.64617E+18,2.004501953,-9.053249215,6.207317933,6.172506147,12.59332956,8.861265768,5.372874567
1.64617E+18,2.014484131,-8.766772699,10.20538511,8.864809879,16.11182929,8.238952521,5.263859766
1.64617E+18,2.024465088,-6.899561946,11.1504214,10.4446346,16.7638374,7.385483047,4.563484517
1.64617E+18,2.034446289,-5.898717847,9.228535055,8.96027341,14.15087386,6.654807735,3.45330344
1.64617E+18,2.044427246,-5.447980743,6.191306124,5.027577987,9.658638937,6.066682912,2.49420865
1.64617E+18,2.054408203,-4.170525104,3.068039664,2.026572755,5.559959007,5.500744811,2.244549098
1.64617E+18,2.064389404,-2.90519771,1.024445923,0.432847227,3.110790881,5.952708014,2.632482204
1.64617E+18,2.074369873,-2.730239203,0.427379609,0.299028612,2.779618238,7.076282202,3.450438189
1.64617E+18,2.08435083,-1.852145578,2.348144258,0.283515474,3.004098155,8.294847813,3.846831052
1.64617E+18,2.094332031,-1.775278027,4.531968307,-0.347780076,4.879682345,9.304506372,3.645421983
1.64617E+18,2.104312988,-3.021514352,5.524522716,-0.964111428,6.370197097,9.752253601,3.336314474
1.64617E+18,2.114293945,-2.348174068,7.198004794,-0.296265797,7.577134544,10.13990319,3.140276816
1.64617E+18,2.124275146,2.680206175,9.065060649,-0.278591754,9.45708428,10.46165256,3.023888887
1.64617E+18,2.13425708,3.163675628,7.280608843,-2.317455397,8.269625634,10.43131828,3.035314024
1.64617E+18,2.144238281,0.392566655,-0.256765269,-3.97165293,3.999257928,10.28760959,3.16548716
1.64617E+18,2.154219238,3.310588191,-7.118830135,-6.321425373,10.07959103,10.27381012,3.193051006
1.64617E+18,2.164200195,3.756980544,-10.49124087,-9.035594316,14.34653277,9.44062229,4.094756922
1.64617E+18,2.174181396,0.954567793,-10.29272204,-10.82165005,14.96527435,8.308220506,4.146940426
1.64617E+18,2.184161865,2.574255737,-8.20440828,-9.883764804,13.10068374,7.244182772,3.635930227
1.64617E+18,2.194142822,6.867172419,-3.070225775,-5.565249278,9.357154636,6.414823586,3.113877453
1.64617E+18,2.204124023,9.835897137,0.723570879,-2.779620489,10.246693,5.906661605,3.004983966
1.64617E+18,2.21410498,10.36927804,1.77273448,-2.420637247,10.79462826,5.222982393,2.702277842
1.64617E+18,2.224085938,8.376981939,2.749882646,-2.4607524,9.153741494,4.367599615,2.087017722
1.64617E+18,2.234067139,6.020297231,2.64194834,-1.860031071,6.832538721,3.628226521,1.482635175
1.64617E+18,2.244049072,3.510346209,1.475097103,-0.641023529,3.861263152,3.229249382,1.036319087
1.64617E+18,2.254030273,0.87526527,1.277294895,0.810511204,1.747712778,3.21271488,1.027383907
1.64617E+18,2.26401123,-1.244506724,1.877843791,2.01506878,3.022514926,3.431209126,0.919231338
1.64617E+18,2.273992188,-2.315146097,2.196178503,2.919183566,4.324897012,3.479105976,0.909111048
1.64617E+18,2.283973145,-2.337547461,1.938500796,3.726421739,4.807091891,3.338438152,0.875567621
1.64617E+18,2.293954102,-1.358566819,0.826657744,3.968769483,4.275534825,3.103307521,0.757327816
1.64617E+18,2.303934814,-1.114828717,-0.526656561,3.179184455,3.409900878,2.897550583,0.687154187
1.64617E+18,2.313916016,-0.46345915,-1.02573947,1.937588942,2.240800471,2.777462082,0.692038548
1.64617E+18,2.323896973,0.965323872,-1.06087625,1.019964979,1.760010555,2.751983853,0.71561581
1.64617E+18,2.33387793,2.424464696,-1.324317343,0.670433163,2.842767334,2.74231134,0.729477727
1.64617E+18,2.343860107,3.162991153,-1.873880148,0.379303268,3.695918128,2.578463667,0.860716756
1.64617E+18,2.353841064,2.882245289,-2.674920051,-0.056939172,3.932655243,2.328247795,0.863189139
1.64617E+18,2.363821777,2.893811224,-1.934451813,-0.379656356,3.501483424,2.042322042,0.750596098
1.64617E+18,2.373802979,2.637195593,-1.060533136,-0.660658496,2.918218768,1.908806251,0.578092144
1.64617E+18,2.383783936,1.790561229,-1.0961048,-1.27409873,2.455785581,1.896628831,0.557620887
1.64617E+18,2.393764893,-0.065201152,-1.50949154,-1.623747157,2.217965448,1.881449462,0.544095101
1.64617E+18,2.40374585,-0.679103304,-0.258944366,-2.086029153,2.209015869,1.843300493,0.532411587
1.64617E+18,2.413726563,-1.358110892,-0.541404048,-1.344129713,1.986018183,1.784848565,0.521016517
1.64617E+18,2.42370752,-0.971795626,-1.153842703,-0.700555988,1.663285427,1.771640729,0.517411058
1.64617E+18,2.433688721,-0.396562008,-1.102249294,-0.279465395,1.204290596,1.901427853,0.625452024
1.64617E+18,2.443670654,-0.38129415,-1.105855794,-0.238242062,1.193759417,2.083627014,0.660244951
1.64617E+18,2.453651855,-0.952113385,-0.462483071,-0.178247466,1.073397712,2.280305701,0.658809509
1.64617E+18,2.463632813,-2.003605429,-0.724162416,0.39258156,2.166325506,2.607237055,0.778996042
1.64617E+18,2.47361377,-2.407228315,-1.125785652,0.870609407,2.79644457,2.885690423,1.029132997
1.64617E+18,2.483594971,-1.655512122,-0.501225182,1.521982773,2.30399189,3.131564656,1.248725535
1.64617E+18,2.493575928,-1.433085176,0.235375275,1.124058975,1.836475761,3.465143462,1.417274628
1.64617E+18,2.503556885,-1.400855808,0.164199798,0.805996649,1.624496589,3.929767631,1.561445222
1.64617E+18,2.513537842,-0.964074018,-0.502757799,1.501628697,1.853939822,4.493947824,1.643663064
1.64617E+18,2.523518555,-1.270212536,-1.264955638,2.356882714,2.961156663,5.1062743,1.686128137
1.64617E+18,2.533499512,-2.050139947,-0.814297445,2.071769741,3.026282206,5.609891132,1.721935718
1.64617E+18,2.543481689,-2.308482694,1.573333021,1.478033741,3.160546295,6.069856343,1.578744478
1.64617E+18,2.553462646,-2.238493212,3.470785767,1.342361826,4.342711247,6.520598474,1.303170412
1.64617E+18,2.563443848,-2.600348502,3.745468385,1.928901485,4.950859188,6.917700673,1.178039438
1.64617E+18,2.573424805,-2.809367685,3.643662792,2.53932354,5.255186902,7.367490518,1.199685127
1.64617E+18,2.583405762,-3.422826038,3.306120105,3.026706075,5.639779952,7.80319912,1.143295484
1.64617E+18,2.593386963,-3.849553613,3.216190244,4.106419712,6.482717452,8.11738508,0.91438945
1.64617E+18,2.60336792,-3.200343563,3.011834377,5.786687213,7.266298517,8.281763162,0.736126614
1.64617E+18,2.613348877,-1.780220744,2.819801985,7.246745736,7.977204579,8.285113466,0.731559418
1.64617E+18,2.623329834,-1.054009287,2.691840206,7.4565587,7.997324985,8.112521666,0.953706267
1.64617E+18,2.633311768,-1.953182379,3.018437721,6.72524992,7.625934314,7.87826356,1.207236057
1.64617E+18,2.643292969,-3.488063942,3.31713659,5.968897884,7.667967603,7.549349803,1.611541607
1.64617E+18,2.653273682,-4.075255051,3.721968852,6.217507903,8.31373324,7.135326482,2.01036889
1.64617E+18,2.663254639,-3.176578364,4.669595155,7.575173389,9.448757637,6.759647198,2.10389909
1.64617E+18,2.67323584,-2.163372797,4.487317264,8.220680785,9.612272918,6.550211611,1.922178431
1.64617E+18,2.683216797,-2.46991858,2.56647429,8.026824101,8.781639551,6.620855651,2.042625249
1.64617E+18,2.693197754,-2.399831775,0.742554397,7.728479452,8.126498275,6.92647951,2.516693391
1.64617E+18,2.703178955,-1.965653738,-0.221671743,7.026675583,7.299801554,7.364528459,3.018619134
1.64617E+18,2.713159912,-2.614461199,-0.146055069,5.676428849,6.251286581,7.838460078,3.327493026
1.64617E+18,2.723141846,-3.243112153,0.504994764,4.604707672,5.654743928,8.192722398,3.328238938
1.64617E+18,2.733122803,-1.907968295,1.247827978,3.689225981,4.336796746,8.346100261,3.241968217
1.64617E+18,2.74310376,0.540363599,2.791466702,2.088212342,3.527734394,8.436051237,3.140365742
1.64617E+18,2.753084961,2.245597491,3.964426193,0.079515125,4.556940398,8.453324701,3.113681917
1.64617E+18,2.763065674,3.966284973,5.898661733,-1.887219814,7.354401767,8.187460152,3.521788128
1.64617E+18,2.773046631,4.924722008,8.428709203,-3.343623614,10.31871332,7.552100782,4.13457474
1.64617E+18,2.783027832,5.068751125,9.592660043,-4.735397999,11.83787814,6.786729968,4.25815355
1.64617E+18,2.793008789,5.638937615,9.688989251,-5.545323512,12.50698777,6.104214563,3.928020401
1.64617E+18,2.802989746,4.947428346,8.956798427,-6.343427362,12.03911774,5.401436295,3.297720454
1.64617E+18,2.81297168,2.609744107,7.034705745,-6.294665961,9.79390978,4.636266448,2.446715524
1.64617E+18,2.822952637,0.271011309,4.446933231,-5.641470933,7.188522559,4.075526758,1.74128895
1.64617E+18,2.832933838,-1.548427127,2.547360424,-4.304908148,5.23630651,3.767171567,1.402860183
1.64617E+18,2.842914795,-1.845693772,1.221073826,-2.965782235,3.700469032,3.704667663,1.348897326
1.64617E+18,2.852895752,-1.568048943,0.442868855,-0.973967782,1.898294906,3.894424434,1.463557052
1.64617E+18,2.862876953,-0.507145147,0.806845375,-0.305648688,1.000808063,4.381459896,1.527239138
1.64617E+18,2.87285791,1.2958295,0.638547494,2.239494498,2.665005179,5.039465424,1.334250976
1.64617E+18,2.882838623,3.223641729,0.914741102,3.7281075,5.012724091,5.532774379,1.275822946
1.64617E+18,2.892820557,4.258613722,0.312055779,3.433441248,5.479205093,5.839982496,1.468873138
1.64617E+18,2.902801514,4.194732494,-0.227675952,1.26563456,4.387419273,6.182220712,1.72185587
1.64617E+18,2.912782715,3.978411464,-0.853815216,-0.984952702,4.186512872,6.748427904,1.9538792
1.64617E+18,2.922763672,3.369990812,-1.352300744,-1.9144787,4.104970654,7.448714674,2.154787127
1.64617E+18,2.932744629,3.072134239,-1.812124826,-2.922667024,4.611267472,8.232376049,2.220249501
1.64617E+18,2.94272583,3.317248818,-2.287130694,-3.886246098,5.598036733,8.970115021,2.117775042
1.64617E+18,2.952706787,4.11552101,-2.684293444,-4.655284305,6.768649529,9.535006368,1.883394685
1.64617E+18,2.962687744,4.83576333,-3.080898561,-4.959127551,7.580863341,9.849971836,1.642373587
1.64617E+18,2.972668945,4.822783729,-3.416419386,-4.774921907,7.598094731,9.948145275,1.529248459
1.64617E+18,2.982650879,5.417610739,-3.786810449,-4.655495318,8.084805264,9.930876044,1.556422828
1.64617E+18,2.99263208,5.668513253,-4.540743734,-5.146635744,8.901587254,9.767232126,1.807667701
1.64617E+18,3.002612793,5.63787963,-5.37146449,-6.352476345,10.04949119,9.417046823,2.231054114
1.64617E+18,3.012593506,5.700436332,-6.103373574,-7.446884862,11.18938057,8.975006262,2.485371008
1.64617E+18,3.022574707,5.585512899,-6.844234026,-8.034920313,11.94158441,8.81935552,2.3886765
1.64617E+18,3.032555664,4.690210657,-7.309307114,-8.26461462,11.98865719,8.879462166,2.472574389
1.64617E+18,3.042536621,3.80566128,-7.029982223,-7.91139564,11.2469502,9.363909279,3.352358315
1.64617E+18,3.052517822,3.070423344,-6.411238915,-6.916738706,9.918304203,10.17506159,4.49609662
1.64617E+18,3.062499756,2.084925283,-5.746864906,-5.995390754,8.562597735,10.89378474,4.949229904
1.64617E+18,3.072480957,0.930529622,-5.043222716,-5.369973959,7.425402417,11.43445134,4.960339714
1.64617E+18,3.082461914,0.115173024,-4.074482313,-4.996674315,6.448366084,11.59816111,4.851137711
1.64617E+18,3.092442871,-0.878119052,-3.116528092,-4.321260148,5.399734224,11.50061332,4.962245415
1.64617E+18,3.102423828,-4.410417272,-2.309281151,-2.627174257,5.629085585,11.45230938,5.023372574
1.64617E+18,3.112404785,-9.626965633,-0.042479544,0.334624169,9.632873151,11.47817892,4.99389696
1.64617E+18,3.122385498,-10.16387705,4.512400267,5.801029042,12.54265086,10.83036759,5.57734367
1.64617E+18,3.132366699,-9.531396304,10.31720883,9.276955095,16.83312833,9.664045192,6.273387062
1.64617E+18,3.142347656,-8.382257833,13.81710495,10.65719715,19.35847326,8.332300803,6.018513172
1.64617E+18,3.152329834,-2.509886725,12.78589377,11.08245203,17.10553577,7.168394611,4.769458945
1.64617E+18,3.162310791,0.334923152,9.182482913,10.52188969,13.96926371,6.559261194,3.739122999
1.64617E+18,3.172291748,1.675729565,3.630418695,8.132705565,9.062500167,6.616610534,3.854939537
1.64617E+18,3.182272949,1.413738671,0.287001417,5.279344425,5.472888122,6.748237403,3.957319688
1.64617E+18,3.192253906,-1.271483579,-0.436927774,4.729303481,4.916694803,7.386070422,4.206535153
1.64617E+18,3.202234863,-2.95174085,0.492891654,5.070527487,5.88778101,8.273482289,4.516606019
1.64617E+18,3.21221582,-0.493265455,1.300196463,2.831728862,3.154759896,9.059727058,4.71294676
1.64617E+18,3.222196777,0.327434111,0.449137852,-0.681508392,0.879426856,9.90348006,4.319082284
1.64617E+18,3.23217749,2.154955389,0.727416449,-2.680871069,3.515684444,10.82495763,3.108960398
1.64617E+18,3.242159912,5.340595304,3.632442894,-4.227613019,7.719411339,11.49390131,1.978388577
1.64617E+18,3.252140625,1.991793849,8.404392508,-6.834587077,11.01420159,11.6155214,1.768908349
1.64617E+18,3.262121826,-6.751661541,10.30714921,-7.724605241,14.54275711,11.24267951,2.197391839
1.64617E+18,3.272102783,-2.881683564,5.726903483,-8.16194335,10.37876885,10.34307179,2.484879633
1.64617E+18,3.28208374,4.360525114,-2.1118922,-10.81559557,11.85121831,9.707235972,3.125350621
1.64617E+18,3.292064941,1.805711305,-5.57470392,-12.48393444,13.79081347,8.881837994,3.515689906
1.64617E+18,3.302045898,-0.29925811,-6.225933201,-12.25630408,13.7502287,7.917797133,3.3555242
1.64617E+18,3.312026855,2.836337525,-4.508459421,-10.29612395,11.59228991,7.010264061,2.843561159
1.64617E+18,3.322007813,7.56339878,-2.272209604,-6.286890066,10.09420251,6.297544347,2.475108943
1.64617E+18,3.331989746,9.236211581,0.239827578,-4.333518157,10.20512132,5.616944337,2.264310154
1.64617E+18,3.341970947,8.22733206,1.081447329,-3.31461087,8.935612255,4.776486745,1.942185568
1.64617E+18,3.351951904,6.689736123,1.37061966,-2.539972652,7.285782643,4.015850469,1.628505205
1.64617E+18,3.361934082,4.967313196,2.198424237,-1.121779047,5.546679884,3.531086008,1.263607784
1.64617E+18,3.371915039,2.845211736,2.698391528,0.887217865,4.0204107,3.364540554,1.083958086
1.64617E+18,3.381895752,0.802000273,2.040351982,2.851996574,3.597238539,3.298388175,1.061873639
1.64617E+18,3.391876709,-0.671881609,0.64772215,4.044118154,4.150404863,3.226977942,1.063385382
1.64617E+18,3.40185791,-1.438315478,-0.728223089,4.388121561,4.674897979,3.101189373,1.020235387
1.64617E+18,3.411838867,-1.503654504,-2.157168097,3.608698154,4.465092769,2.869950187,0.891245253
1.64617E+18,3.421821045,-1.37505735,-2.318297401,1.883345311,3.288202414,2.575490191,0.797036354
1.64617E+18,3.431802002,-0.696669428,-1.612570806,0.395260497,1.800545405,2.393396704,0.821053459
1.64617E+18,3.441782959,0.829583861,-1.00697924,-0.254337676,1.329249497,2.415457366,0.807682768
1.64617E+18,3.45176416,2.086495309,-1.007642673,-0.758755955,2.438138025,2.555528904,0.724319103
1.64617E+18,3.461745117,3.290603387,-1.067241109,-1.759782936,3.88122535,2.649986424,0.763388019
1.64617E+18,3.471726074,2.393120295,-1.766919656,-1.559836995,3.358886909,2.647038286,0.758669735
1.64617E+18,3.481707031,1.317855892,-2.187519396,-1.338091602,2.883136208,2.690421585,0.808877893
1.64617E+18,3.491687988,0.888899973,-2.603039641,-0.894823226,2.892519169,2.807880502,0.907592927
1.64617E+18,3.501668701,0.273185657,-2.305442011,-0.437883468,2.362506127,2.952810272,1.018479255
1.64617E+18,3.511651123,0.198896432,-1.501931334,0.128611182,1.520492801,3.094336464,1.024929248
1.64617E+18,3.521631836,-0.1461483,-0.95465927,1.104599657,1.467267545,3.305293459,0.887118362
1.64617E+18,3.531613037,-1.054615436,-0.642762482,1.599905678,2.021152024,3.564346569,0.662316354
1.64617E+18,3.541593994,-1.91488655,-0.422441568,1.899331692,2.729964882,3.7956782,0.454216295
1.64617E+18,3.551574951,-2.764512644,-0.10078268,1.946808021,3.382713227,3.971231487,0.330914038
1.64617E+18,3.561556152,-3.391156642,0.092596451,1.824120091,3.851743966,4.101291217,0.329634417
1.64617E+18,3.571537109,-3.421514663,0.301574717,1.608419824,3.792719899,4.200957644,0.385118752
1.64617E+18,3.581518066,-3.653718614,0.773064101,1.58677264,4.057725376,4.311489375,0.409908985
1.64617E+18,3.591499023,-3.636222997,1.554278776,1.792616407,4.341816876,4.377462328,0.416790271
1.64617E+18,3.60147998,-2.40696528,1.591993297,2.43795137,3.777768045,4.461699059,0.481218515
1.64617E+18,3.611462158,-1.501246274,1.222782384,3.070572982,3.63006275,4.707950177,0.663694374
1.64617E+18,3.621443115,-2.181443583,1.500214008,3.075124653,4.057798641,5.051573181,0.873159386
1.64617E+18,3.631423828,-3.040940644,1.774507919,2.52812527,4.334468334,5.370786095,1.022266081
1.64617E+18,3.641405029,-3.112176912,2.441702247,2.114742329,4.485497755,5.698611042,1.154464843
1.64617E+18,3.651385986,-2.661803088,3.435776997,1.74460261,4.68331053,6.077222435,1.305492753
1.64617E+18,3.661366943,-2.40037918,3.85437475,1.699716882,4.848408234,6.399194289,1.318978166
1.64617E+18,3.671348145,-2.157214274,3.919055604,1.994542125,4.898037213,6.659945947,1.242129694
1.64617E+18,3.681329102,-2.035611802,3.153171185,2.858002244,4.717454902,6.911415536,1.107197288
1.64617E+18,3.691310059,-2.259070721,1.993064161,4.21901178,5.184184185,7.196697153,0.840573
1.64617E+18,3.701291992,-3.543029165,1.060507417,5.02626632,6.240279222,7.379513367,0.521074735
1.64617E+18,3.711272949,-4.78880664,0.871086669,5.122600204,7.066292795,7.197719072,0.991551264
1.64617E+18,3.72125415,-4.698363568,1.764815962,5.231850267,7.24992778,6.781491818,1.628430669
1.64617E+18,3.731235107,-3.489740058,3.326245779,5.891627597,7.612717806,6.410302853,1.882567702
1.64617E+18,3.74121582,-2.397978987,4.779761749,6.310557358,8.271611679,6.192880478,1.856515479
1.64617E+18,3.751197021,-2.303526971,4.430929022,6.125234693,7.903029074,6.272465723,1.958194752
1.64617E+18,3.761177979,-3.075558953,2.756975234,6.20732144,7.45592481,6.532326346,2.299937606
1.64617E+18,3.771158936,-3.824606219,0.963189198,6.276405497,7.412733108,6.85350151,2.609859794
1.64617E+18,3.781140137,-4.331340228,0.176809104,6.206225461,7.570271072,7.11611431,2.779528781
1.64617E+18,3.791121094,-3.714241472,1.05885965,5.852881979,7.012346321,7.232770147,2.820322247
1.64617E+18,3.801103027,-1.254224985,1.676211211,3.895419585,4.422336269,7.141193322,2.84078613
1.64617E+18,3.811083984,0.393733945,2.387594225,1.605522056,2.904020261,7.008813559,2.991258724
1.64617E+18,3.821064941,1.457566122,3.221339297,-0.12723193,3.538038133,6.856586492,3.22581893
1.64617E+18,3.831046143,1.71392924,4.735320549,-2.053388281,5.438494054,6.682269329,3.44039909
1.64617E+18,3.8410271,3.400112394,7.470096227,-3.854322728,9.067464123,6.537890431,3.518963356
1.64617E+18,3.851008057,5.378369447,8.015947317,-4.135465482,10.5016353,6.13651722,3.435462263
1.64617E+18,3.860989014,6.074047526,7.869405341,-3.870106864,10.66767645,5.575398088,3.120479217
1.64617E+18,3.870969971,5.353384643,7.607434905,-3.774511816,10.03886111,4.998428404,2.618636326
1.64617E+18,3.880950928,3.647547525,7.070161674,-3.611149346,8.736829438,4.409544902,2.010436493
1.64617E+18,3.890932861,1.259841072,5.268524924,-2.79708951,6.096578067,4.025543887,1.430245642
1.64617E+18,3.900913818,-0.508920998,2.740105348,-1.354165369,3.098538647,3.980773948,1.370474946
1.64617E+18,3.91089502,-0.662972326,1.178254675,-0.285334068,1.381749585,4.301210802,1.495633031
1.64617E+18,3.920875977,1.514223975,0.822639156,-0.5019326,1.794866503,4.834443036,1.297091381
1.64617E+18,3.930856934,3.815799812,0.795851103,0.87404888,3.994705074,5.368408576,1.001229535
1.64617E+18,3.940838135,4.877524788,0.472195487,1.235714638,5.053732018,5.784558628,1.190695093
1.64617E+18,3.950819092,4.713009349,-0.648154696,1.133084577,4.890443977,6.190637179,1.51931132
1.64617E+18,3.960800049,4.510741394,-1.368668526,1.330474697,4.897979622,6.661895971,1.755453097
1.64617E+18,3.970781006,3.803709562,-1.642435198,0.238572317,4.150026092,7.180020855,1.915682184
1.64617E+18,3.980761963,3.620806817,-2.948915272,-1.473938873,4.896819283,7.825560689,1.873063984
1.64617E+18,3.990743896,2.909686254,-3.904862244,-2.862797077,5.64887868,8.403732116,1.769259529
1.64617E+18,4.000724854,2.167881799,-4.629419212,-3.687194768,6.302907185,8.845917013,1.566434636
1.64617E+18,4.010705811,1.958629976,-5.071814019,-3.939445774,6.714071926,9.135603148,1.317433339
1.64617E+18,4.020687012,2.647043326,-5.058810161,-4.278201051,7.134521907,9.289627976,1.096900893
1.64617E+18,4.030667969,3.875485343,-5.17331683,-4.974042212,8.156205588,9.345722054,0.994853307
1.64617E+18,4.040648926,4.286215138,-5.770702293,-5.603729523,9.114517526,9.192986832,1.250219046
1.64617E+18,4.050630127,4.324089526,-5.934785186,-6.188602126,9.603031902,8.795661416,1.745339718
1.64617E+18,4.060611084,3.933767436,-5.945629236,-7.125013208,10.07922847,8.403503382,1.948606784
1.64617E+18,4.070592041,3.565134614,-6.237230256,-7.801397389,10.60542443,8.179515445,1.870272535
1.64617E+18,4.080572998,3.218876999,-6.331162339,-7.974101395,10.67853355,8.237182903,1.951317806
1.64617E+18,4.090553955,2.650247382,-5.976072305,-7.660437597,10.07072766,8.488967665,2.368035275
1.64617E+18,4.100535889,1.915482909,-5.540456198,-7.090134787,9.199768527,8.699876381,2.583630659
1.64617E+18,4.110516846,1.228101241,-4.983720725,-6.46437137,8.254320211,8.71191713,2.586211583
1.64617E+18,4.120497803,1.09832949,-4.329973324,-6.266190977,7.69546269,8.747304445,2.582125957
1.64617E+18,4.130479004,-0.006176497,-3.597086919,-5.568000038,6.628853361,8.836874684,2.559521923
1.64617E+18,4.140459961,-2.429941959,-1.93947987,-4.094678129,5.141263373,8.932390554,2.49228005
1.64617E+18,4.150440918,-5.413393999,0.624869682,-1.607356578,5.681451564,9.036394422,2.349516399
1.64617E+18,4.160422119,-6.30441111,4.086891128,2.237658515,7.839349091,9.121741033,2.238999262
1.64617E+18,4.170403076,-6.079392394,6.732215082,6.53893006,11.182099,8.972925803,2.365187172
1.64617E+18,4.180384033,-6.18056495,8.61908506,7.852163115,13.19638117,8.296797554,2.592505781
1.64617E+18,4.190365234,-4.640030622,8.202615552,7.715899372,12.17981483,7.417816624,2.249727178
1.64617E+18,4.200346924,-1.131291849,5.435743777,7.485890008,9.320176011,6.709826303,1.682149743
1.64617E+18,4.210327881,-0.12927403,4.440976369,7.373059748,8.60819336,6.36874478,1.447747595
1.64617E+18,4.220308838,0.749353555,5.269538485,6.743778679,8.591165082,6.318707786,1.376370537
1.64617E+18,4.230289795,0.10763503,4.987980136,5.711891792,7.584012064,6.598033496,1.966243378
1.64617E+18,4.240270996,-2.413778467,3.34493119,4.603651149,6.181302052,7.231400692,2.953891
1.64617E+18,4.250251953,-4.061031295,0.828183347,5.052453485,6.534917678,7.363673584,2.933451539
1.64617E+18,4.26023291,-2.333665066,-1.184369943,5.78696603,6.351196788,7.60604487,2.955012559
1.64617E+18,4.270214111,2.826566657,-2.440761167,2.365760871,4.420816512,8.140639948,3.156351546
1.64617E+18,4.280195068,3.211685626,-2.178545816,-2.08731627,4.40657187,8.802715888,2.99700598
1.64617E+18,4.290176025,2.468520696,-0.050631286,-4.462391789,5.09991161,9.359317701,2.622306539
1.64617E+18,4.300157959,2.588696643,3.056495356,-4.344770495,5.90936078,9.705656488,2.237331336
1.64617E+18,4.310138916,2.692835063,6.757259507,-3.581184709,8.107823422,9.71378933,2.223622595
1.64617E+18,4.320120117,-0.006296324,10.68463812,-3.929826589,11.38442218,9.534785582,2.409943227
1.64617E+18,4.33010083,-4.974888599,12.52311962,-3.481937276,13.91768403,9.155263215,2.387510101
1.64617E+18,4.340081787,0.179400143,6.067981358,-4.411110807,7.504030965,8.43386281,1.874232315
1.64617E+18,4.350062988,4.205084961,-2.82343245,-7.38935388,8.958630537,8.113805542,2.242738402
1.64617E+18,4.360042725,3.271170957,-6.727234371,-8.992609161,11.69714757,7.488638604,2.7369811
1.64617E+18,4.370023682,2.19813256,-7.420294377,-7.875521778,11.04157591,6.547242547,2.746517226
1.64617E+18,4.380004639,2.239704488,-7.404628606,-6.29346886,9.972589999,5.674067766,2.560583439
1.64617E+18,4.38998584,3.60493471,-5.861863158,-5.096381474,8.563299485,4.880350305,2.324403131
1.64617E+18,4.399967773,4.65312625,-2.059576907,-3.161473734,5.990689201,4.271528187,2.06259725
1.64617E+18,4.409948975,6.062281101,1.699510838,-0.524242266,6.31778594,3.8838503,2.067363851
1.64617E+18,4.419929688,6.942484557,2.806461442,1.233538171,7.589198513,3.434341298,1.975946967
1.64617E+18,4.429910645,5.894206507,2.17469031,2.3384561,6.703679976,2.836072805,1.467737305
1.64617E+18,4.439891846,2.96781754,0.535094719,3.070095427,4.303458289,2.263683148,0.821806173
1.64617E+18,4.449872559,0.772163865,-1.01865448,2.386156885,2.70696115,1.899830302,0.618473483
1.64617E+18,4.459853516,-0.613507161,-1.675854653,1.424100783,2.283187004,1.704990995,0.640038294
1.64617E+18,4.469834717,-0.622974662,-1.975790955,1.021498179,2.309828101,1.559442951,0.657264422
1.64617E+18,4.479815674,0.001204133,-2.022654997,0.227554627,2.035415387,1.432926448,0.621435548
1.64617E+18,4.489796631,-0.125357734,-2.441988663,-0.383391999,2.475078305,1.387813936,0.591725283
1.64617E+18,4.499777832,0.116067343,-1.945875709,-0.817748754,2.11391034,1.328652108,0.50298192
1.64617E+18,4.509759766,0.753090988,-1.084396826,-1.25664549,1.822695916,1.319758599,0.489627675
1.64617E+18,4.519740967,0.435571611,-0.079380995,-1.544299818,1.606513585,1.365521162,0.551918989
1.64617E+18,4.52972168,0.33234278,0.149278707,-0.909527166,0.979783406,1.454090879,0.646455864
1.64617E+18,4.539702637,0.47061494,-0.183674313,-0.432338985,0.664929826,1.585472697,0.669794795
1.64617E+18,4.549683594,0.127971715,-0.675709058,-0.320103184,0.758568085,1.664939361,0.599295154
1.64617E+18,4.559664551,0.262618525,-0.770457718,0.15008185,0.827706558,1.751282963,0.51935818
1.64617E+18,4.569645508,0.25634792,-0.509155975,0.875423821,1.04466307,1.932231142,0.479764706
1.64617E+18,4.579626709,0.292339271,-0.747545045,1.365902569,1.584290273,2.178425833,0.581937722
1.64617E+18,4.589607666,-0.34586752,-0.872818023,1.632784742,1.883460022,2.474272125,0.880244944
1.64617E+18,4.599588623,-0.604821166,-0.994065983,1.657271533,2.024975248,2.816603343,1.193750508
1.64617E+18,4.609570801,-0.977666637,-0.954480991,1.825650662,2.280321546,3.187442448,1.440694882
1.64617E+18,4.619551758,-1.333745827,-0.991004842,1.857456836,2.492210751,3.570031605,1.642821558
1.64617E+18,4.629532959,-1.574524422,-0.775875652,1.476312324,2.293601591,3.972430208,1.813493087
1.64617E+18,4.639513672,-0.769226131,0.16243045,1.229768005,1.459596464,4.519393554,2.035868822
1.64617E+18,4.649494629,0.067991586,1.450610312,0.722498574,1.622004107,5.337825311,2.272612266
1.64617E+18,4.659475586,-0.983768022,2.393574468,0.507704754,2.637188346,6.270906909,2.462967549
1.64617E+18,4.669456543,-2.307758033,2.164575158,1.511681451,3.506609982,7.05181268,2.424737093
1.64617E+18,4.6794375,-3.103893067,1.681850678,2.858991547,4.54275319,7.66649477,2.218447973
1.64617E+18,4.689418701,-3.67528455,1.962093853,3.286989873,5.306772205,8.155572426,2.004689395
1.64617E+18,4.699399658,-4.032191277,2.399144962,3.295000161,5.733366298,8.573820835,1.791689938
1.64617E+18,4.709380615,-4.16045993,2.448249477,3.739316292,6.106213119,8.85444138,1.524698018
1.64617E+18,4.719362793,-4.043651121,2.067609407,4.672761217,6.516196777,8.954324614,1.365829469
1.64617E+18,4.72934375,-3.287968363,1.862308952,6.781510736,7.763235051,8.961559905,1.353026295
1.64617E+18,4.739324951,-0.623425475,1.63894911,9.483156882,9.643914037,8.789144778,1.584752851
1.64617E+18,4.749305908,0.527681666,1.161214109,10.87829957,10.95282008,8.281151089,1.991362627
1.64617E+18,4.759286621,-0.806886876,0.767153416,10.38674472,10.44624606,7.561211703,2.18711228
1.64617E+18,4.769267578,-2.727536958,1.442050573,9.147117585,9.653430884,6.738118874,2.476185411
1.64617E+18,4.779248535,-3.573142564,2.545712072,8.351256546,9.433529754,5.92496563,2.709477282
1.64617E+18,4.789229492,-3.621861295,3.308004604,8.123128174,9.489256294,5.317126433,2.530058882
1.64617E+18,4.799210693,-2.894616695,3.443441833,7.258662969,8.539571744,5.07339311,2.214063502
1.64617E+18,4.80919165,-2.830871076,2.738043155,5.913624909,7.105045456,5.38505011,2.817226583
1.64617E+18,4.819172607,-3.554879762,1.344022745,5.381953151,6.588549687,6.0659445,3.801524763
1.64617E+18,4.829154785,-3.416348074,-0.645431993,4.937865568,6.039083787,6.856565793,4.572055813
1.64617E+18,4.839135742,-2.164182944,-1.61490071,3.679442254,4.563977149,7.610063282,4.97811001
1.64617E+18,4.849116943,-0.894568667,-1.248405485,3.424826857,3.753426215,8.273099688,4.969789005
1.64617E+18,4.8590979,0.249995373,-0.474666846,2.149378174,2.215317773,8.854665929,4.741919164
1.64617E+18,4.869078613,0.93265962,0.587750204,1.049223806,1.521898441,9.554809117,4.195308445
1.64617E+18,4.87905957,1.462491888,2.899514404,-0.843138924,3.355137784,9.950872254,3.556589296
1.64617E+18,4.889040527,2.760662398,5.729723217,-3.046085021,7.051923069,9.831059944,3.789330112
1.64617E+18,4.899021484,5.393026918,8.921665154,-5.213903692,11.65614174,9.465878371,4.19392657
1.64617E+18,4.909002686,6.909004897,10.4176367,-6.110449796,13.91398936,8.686241779,4.432189085
1.64617E+18,4.918983643,6.876668561,11.04611698,-6.386929819,14.49476262,7.68717783,4.264006423
1.64617E+18,4.9289646,5.64829581,10.43635076,-6.590478461,13.57405868,6.725241741,3.662337663
1.64617E+18,4.938946777,1.771868218,8.742525562,-6.76328359,11.19434121,5.874903474,2.876242587
1.64617E+18,4.948927734,-4.044439641,6.424871135,-5.825031849,9.569088627,5.198778167,2.279005782
1.64617E+18,4.958908936,-7.538128729,3.622312546,-3.873492123,9.216749652,4.761141968,1.758517621
1.64617E+18,4.968889893,-4.379408093,2.14567815,-2.504991647,5.482529811,4.446112176,1.085485987
1.64617E+18,4.978870605,1.476502147,0.814285754,-1.345210932,2.15701468,4.578195197,1.268494972
1.64617E+18,4.988851563,3.291731515,-0.496359622,-0.691997637,3.400107347,5.1042829,1.245988499
1.64617E+18,4.99883252,3.305341522,-1.990157918,-0.108895259,3.859775809,5.534670813,1.323887467
1.64617E+18,5.008813477,3.573879646,-1.451324013,0.716740595,3.923349869,6.003813582,1.47037502
1.64617E+18,5.018794678,4.64002127,-1.026456094,1.089097113,4.875401729,6.580209768,1.659443604
1.64617E+18,5.028775635,4.790186697,-1.456258547,0.803229523,5.070676011,7.155703214,1.942234725
1.64617E+18,5.038756592,3.652880702,-2.400969255,-0.737617525,4.433088134,7.732851288,2.088883901
1.64617E+18,5.04873877,2.833146035,-3.51002706,-2.572431444,5.192726639,8.345204558,1.92275406
1.64617E+18,5.058719727,1.893634649,-4.134431462,-4.015278429,6.066451727,8.815459595,1.649940646
1.64617E+18,5.068700928,1.904736035,-4.48372187,-4.749097438,6.803360026,9.113178198,1.372286366
1.64617E+18,5.078681885,2.105662512,-4.900121236,-5.155590619,7.417891707,9.264844537,1.178792028
1.64617E+18,5.088662354,3.150358174,-5.063274154,-4.877489717,7.703986483,9.249774527,1.203021939
1.64617E+18,5.098643555,4.199030776,-5.438073682,-5.091029007,8.551203493,9.066638531,1.521607633
1.64617E+18,5.108624512,4.850648764,-5.808188266,-6.048153791,9.687311735,8.701796105,1.972152351
1.64617E+18,5.118605469,5.433746466,-6.006996436,-6.884362039,10.63033619,8.571899334,1.945562345
1.64617E+18,5.12858667,5.528688603,-5.904909688,-7.219280222,10.84215675,8.920507828,2.51279544
1.64617E+18,5.138567627,4.96361025,-5.689077318,-7.378293557,10.55662083,9.687901618,3.81621578
1.64617E+18,5.148548584,3.993046723,-5.519497581,-7.17685387,9.895277012,10.58943185,4.841969327
1.64617E+18,5.158530762,3.063131141,-5.419017099,-6.560401303,9.043637761,11.31914002,5.217650058
1.64617E+18,5.168511719,1.881501729,-5.408530192,-6.035771864,8.320023412,11.6568431,5.168498257
1.64617E+18,5.17849292,0.522716883,-4.81226175,-5.42042229,7.26719161,11.57814816,5.22439393
1.64617E+18,5.188473877,-1.565882705,-3.698609019,-4.284395522,5.872626525,11.23393224,5.597182606
1.64617E+18,5.198454346,-4.440024767,-1.413126092,-1.52528649,4.902779228,10.77286901,6.17943919
1.64617E+18,5.208435547,-6.941838661,2.569717802,3.946104647,8.388344023,10.62424055,6.334761818
1.64617E+18,5.218416504,-8.423903849,6.862106952,9.012362493,14.11642113,10.25256027,6.560076272
1.64617E+18,5.228397461,-9.641834701,11.28357198,11.07076276,18.51609465,9.647856093,6.453884051
1.64617E+18,5.238378662,-8.883046378,12.17858605,12.48333706,19.57192314,8.773363105,5.746723967
1.64617E+18,5.248359619,-6.863046279,8.664083893,13.16850193,17.19235868,7.651034237,4.485795785
1.64617E+18,5.258340576,-3.553827038,5.693660554,10.45110292,12.42066864,6.802592697,3.226535175
1.64617E+18,5.268322754,-0.82835052,4.516494259,5.971793605,7.533073996,6.698977093,3.056618116
1.64617E+18,5.278303711,0.766772892,2.58370541,2.714295199,3.825032385,7.230072552,3.573156301
1.64617E+18,5.288284912,0.27611645,-0.016968086,1.231300621,1.261994227,8.436739839,4.201708969
1.64617E+18,5.298265625,-1.109217672,-2.650489959,1.848506052,3.41649462,9.382188445,3.483175187
1.64617E+18,5.308246582,-0.183850839,-4.475185512,1.327482821,4.671541195,10.05386467,2.859863726
1.64617E+18,5.318227539,4.669167577,-5.698740634,-3.29212899,8.069379403,10.72822516,2.238844922
1.64617E+18,5.328208496,2.58553321,-4.614452529,-8.21568663,9.771164768,11.07477443,2.061662446
1.64617E+18,5.338189453,0.750879011,-1.298882458,-8.212720766,8.348634458,11.08483285,2.055514071
1.64617E+18,5.348170654,2.466731474,3.84917835,-7.411298001,8.707943282,11.17670461,1.948933845
1.64617E+18,5.358151611,3.526710483,8.583737268,-6.594611031,11.38451259,11.1048221,2.049333672
1.64617E+18,5.368133545,-3.556974689,11.20086096,-5.18244297,12.84402859,10.61754562,2.462547589
1.64617E+18,5.378115479,-7.905810534,12.90323654,-4.852931322,15.89170526,9.941468451,2.677184171
1.64617E+18,5.388096436,2.923759203,7.816575084,-6.722777392,10.71648029,8.95420897,2.047093361
1.64617E+18,5.398077393,6.210972363,-0.265116333,-8.002276519,10.13325682,8.34653551,2.317805755
1.64617E+18,5.408058594,5.067040229,-5.580344556,-8.572655317,11.41514613,7.650433703,2.69179553
1.64617E+18,5.418039551,4.398419668,-7.253956983,-7.815835664,11.53487211,6.863983836,2.625029245
1.64617E+18,5.428020508,6.032844578,-6.273674611,-4.658027466,9.871748918,6.010678625,2.339350333
1.64617E+18,5.438001709,8.307724278,-3.621888183,-1.935835376,9.267352119,5.226269737,2.22551567
1.64617E+18,5.447982422,7.905978876,-1.107980531,-0.306409443,7.989118199,4.608496736,1.842489659
1.64617E+18,5.457963379,6.451161176,0.87774788,0.122218266,6.511747781,4.128237476,1.491126833
1.64617E+18,5.46794458,5.341067013,2.842538717,0.63165737,6.083256877,3.782507315,1.284959348
1.64617E+18,5.477925537,4.022745696,4.066862485,1.872922116,6.019110454,3.409894643,1.089084695
1.64617E+18,5.487906738,1.679996137,2.976070405,3.138129683,4.639745681,3.012179036,0.7309262
1.64617E+18,5.497888428,-1.111766479,0.225784439,2.962447538,3.172238757,2.787021469,0.50754171
1.64617E+18,5.507869385,-2.62593887,-1.653022059,1.725995525,3.550647466,2.702722918,0.506565178
1.64617E+18,5.517850586,-2.085328603,-2.126345089,0.375478961,3.001819993,2.538363045,0.470113016
1.64617E+18,5.527831543,-0.07970714,-1.832615825,-0.864043545,2.02766004,2.356074123,0.592539766
1.64617E+18,5.5378125,1.526955885,-2.229488068,-1.497849617,3.089622112,2.313811031,0.628441313
1.64617E+18,5.547793701,1.426028828,-2.176441537,-1.839426382,3.1865256,2.225967197,0.572788701
1.64617E+18,5.557774414,1.200168401,-1.89094994,-2.076907689,3.054446172,2.214307236,0.553994892
1.64617E+18,5.567755615,1.125356613,-1.665835363,-1.230702071,2.357130152,2.309281069,0.740049345
1.64617E+18,5.577736572,1.789745236,-0.971609821,-0.149546144,2.041954383,2.51313587,0.970150804
1.64617E+18,5.587717529,2.16601016,-0.803503663,0.605093261,2.388170011,2.643149568,0.98529414
1.64617E+18,5.59769873,2.01323718,-0.867463802,0.787275874,2.329253248,2.734244264,0.999516965
1.64617E+18,5.607679688,1.477481952,-1.021510454,0.640623424,1.90704874,2.870239118,1.027293619
1.64617E+18,5.617661377,-0.187194377,-1.078198556,0.438547485,1.178930769,2.964566638,0.976575952
1.64617E+18,5.627642578,-1.154170255,-0.980665234,0.531324005,1.60502912,3.106748897,0.792383278
1.64617E+18,5.637623535,-1.809796675,-0.806012431,0.981994729,2.211183776,3.386818955,0.701890949
1.64617E+18,5.647604492,-2.445126522,-0.582006692,1.762688302,3.069925985,3.708046156,0.816113436
1.64617E+18,5.657585693,-3.347612976,-0.721758862,2.075101224,4.004184509,3.979939515,0.992156166
1.64617E+18,5.667566406,-3.66293331,-0.803220755,2.293412843,4.395678159,4.21776133,1.226759461
1.64617E+18,5.677547607,-2.73503199,0.436348513,1.870501173,3.342091359,4.480942575,1.490626321
1.64617E+18,5.687528564,-2.460067925,2.06165196,0.762777685,3.299116972,4.927203362,1.731431708
1.64617E+18,5.697509521,-2.233147175,2.935848869,0.063678691,3.689201792,5.402237042,1.866005626
1.64617E+18,5.707490723,-1.064680903,2.572455118,0.61096303,2.850323943,5.818074091,1.900940297
1.64617E+18,5.71747168,-1.30394924,1.08197749,1.973058315,2.600753357,6.259810245,1.657656903
1.64617E+18,5.727452637,-2.409785014,0.490535446,3.655511635,4.405729696,6.729429116,1.138410748
1.64617E+18,5.73743457,-2.889450691,0.932049379,4.49402173,5.423455785,7.05991542,0.862014002
1.64617E+18,5.747415527,-2.818079399,1.699781472,4.762359363,5.788859581,7.272168468,0.673678898
1.64617E+18,5.757396729,-2.959013472,2.364978488,5.136747971,6.382402659,7.416775427,0.461573651
1.64617E+18,5.767377686,-2.991490677,2.621284907,5.793571712,7.027490606,7.461198975,0.372706699
1.64617E+18,5.777358643,-2.598595229,2.554879713,6.901682591,7.804699232,7.401254431,0.47249055
1.64617E+18,5.7873396,-1.467609377,2.296972874,7.573885687,8.049453774,7.240109538,0.571778165
1.64617E+18,5.797320557,-1.05606505,1.731250961,7.58102153,7.847572282,7.022156493,0.633769641
1.64617E+18,5.807301514,-2.383467208,1.56816234,6.684250385,7.267685482,6.749021795,0.788788717
1.64617E+18,5.817282715,-4.106577241,2.066948312,5.666490223,7.296942059,6.385443548,1.197806433
1.64617E+18,5.827263672,-4.807376901,3.133812405,5.149911404,7.710592735,5.895482518,1.643806267
1.64617E+18,5.837244385,-4.126107286,3.949534914,4.931361008,7.545986268,5.50955939,1.625282427
1.64617E+18,5.847225586,-3.663485098,4.002342959,4.785846622,7.234929171,5.448573903,1.557764764
1.64617E+18,5.85720752,-3.591104922,2.859874468,5.052531227,6.826638142,5.745081129,2.068142735
1.64617E+18,5.867188721,-3.274105842,1.475771056,5.331237693,6.428045163,6.312995053,2.899726361
1.64617E+18,5.877169678,-3.158597302,0.180777423,5.324183683,6.1932503,6.994676364,3.5703603
1.64617E+18,5.887150635,-2.759499784,-0.97549806,5.088178879,5.869923324,7.529179387,3.802891624
1.64617E+18,5.897131592,-1.738151827,-0.410451271,4.794384148,5.116225306,7.808016486,3.773116955
1.64617E+18,5.907112549,-0.531163224,0.658394935,3.532010928,3.631903008,7.917873121,3.708585396
1.64617E+18,5.917093506,1.230216333,1.42629537,1.483053907,2.397331767,8.05354018,3.571599876
1.64617E+18,5.927074707,2.426628597,2.940915505,-0.543575839,3.851361454,8.120577071,3.469642911
1.64617E+18,5.93705542,2.907358688,5.751934464,-2.563675891,6.936131392,7.969206671,3.679280455
1.64617E+18,5.947036377,4.264653002,8.129598831,-4.445490631,10.20000144,7.529349465,4.023330104
1.64617E+18,5.957017578,5.989523323,9.375534127,-5.711342926,12.50577738,6.952735759,4.012438954
1.64617E+18,5.966998535,6.31119624,10.02907461,-5.917156006,13.24485827,6.284073977,3.56334536
1.64617E+18,5.976980713,4.324264006,9.165390324,-5.516183342,11.53828053,5.539819393,2.705822036
1.64617E+18,5.98696167,1.466673119,6.946517758,-4.955887546,8.658294311,4.903862285,1.825354179
1.64617E+18,5.996942627,-1.628045438,4.408348941,-4.066886159,6.214791659,4.481918421,1.328882383
1.64617E+18,6.006923828,-2.983648731,2.69950738,-2.94896028,4.988573602,4.255591162,1.201062755
1.64617E+18,6.016904541,-1.923179162,2.10258895,-1.136348986,3.06770067,4.273384986,1.213048409
1.64617E+18,6.026885498,0.896062266,1.54594174,-1.507242153,2.337657451,4.625170228,1.317944709
1.64617E+18,6.036866699,2.194379199,0.868373903,-0.932648953,2.537559334,5.14142988,1.331838358
1.64617E+18,6.046847412,4.426031313,0.215302208,0.151806326,4.433864385,5.718254738,1.328300095
1.64617E+18,6.056828369,5.699867008,-0.275284676,1.139452651,5.819159553,6.18095091,1.581962665
1.64617E+18,6.06680957,5.555159261,-0.629735827,1.552568173,5.802312432,6.62196969,1.983423904
1.64617E+18,6.076790527,4.896572019,-1.128378592,1.252747314,5.178709454,7.186440577,2.424102207
1.64617E+18,6.086771484,3.990412283,-1.942312463,0.086439389,4.43885567,7.86665697,2.703541628
1.64617E+18,6.096753662,2.415173283,-2.681325827,-1.609948056,3.951519065,8.630658561,2.706424195
1.64617E+18,6.106734619,1.599541959,-3.57468161,-3.369860756,5.166511842,9.358947498,2.298443788
1.64617E+18,6.11671582,1.723616521,-4.623480469,-4.361431415,6.585553093,9.810691533,1.825289649
1.64617E+18,6.126696533,2.505866384,-5.386596592,-4.578102281,7.500253974,9.924280123,1.647763865
1.64617E+18,6.13667749,3.174773361,-5.953897298,-4.843383742,8.305807908,9.761782255,1.934056342
1.64617E+18,6.146658447,3.629290568,-6.344115344,-5.355279663,9.06082611,9.427338435,2.391888626
1.64617E+18,6.156639404,4.273178839,-6.83241967,-6.300597689,10.22934735,9.040422285,2.71147326
1.64617E+18,6.166620361,4.824611529,-7.372142633,-7.308141578,11.4470213,8.655590077,2.787449799
1.64617E+18,6.176601563,4.785386895,-7.5673104,-7.960980632,11.98087338,8.602853211,2.738701208
1.64617E+18,6.18658252,4.389365424,-7.78270847,-8.127856956,12.07887158,9.039579673,3.488208126
1.64617E+18,6.196563477,3.677610947,-7.160857259,-7.836404405,11.23440844,9.682400501,4.449045264
1.64617E+18,6.206544678,2.841832323,-6.278360139,-6.803316325,9.683952189,10.21279156,4.896139098
1.64617E+18,6.216526611,1.594344244,-5.200577177,-5.480208358,7.721438997,10.45700555,4.924494127
1.64617E+18,6.226507813,0.038734512,-4.051084486,-4.25512325,5.875275291,10.34819093,4.995252476
1.64617E+18,6.236488525,-1.767401741,-3.190430949,-3.363425462,4.961369709,10.00544585,5.392212407
1.64617E+18,6.246469482,-4.262342972,-1.992494252,-2.194488651,5.191664607,9.655755038,5.805535446
1.64617E+18,6.256450439,-6.322317354,0.854887229,0.122288847,6.381025267,9.552493763,5.892549802
1.64617E+18,6.266431396,-7.709179708,6.111998194,4.738231761,10.91965265,9.425449227,5.972708052
1.64617E+18,6.276412354,-7.845825728,10.81004261,9.425901209,16.34813801,8.54854109,6.322451593
1.64617E+18,6.286393555,-6.416443498,13.16091951,11.31951657,18.50707986,7.208348128,5.935698689
1.64617E+18,6.296374512,-3.256280847,11.82116144,11.09832296,16.538319,5.861090853,4.596068034
1.64617E+18,6.306355469,-1.204276713,8.129415875,8.916525453,12.12609216,4.907743559,2.990897494
1.64617E+18,6.31633667,0.217098444,4.583673944,4.789924246,6.63329276,4.755284937,2.636979624
1.64617E+18,6.326317383,0.827333452,1.705214603,1.549066594,2.447824503,5.502886507,3.846015822
1.64617E+18,6.33629834,-0.592954056,-0.829607242,1.051097053,1.464461574,6.165547576,3.833402357
1.64617E+18,6.346280762,-0.743385002,-2.398286884,3.315616248,4.159051856,7.136867856,3.748815954
1.64617E+18,6.356261475,0.359314812,-2.008058317,4.685789334,5.11057991,7.947336687,3.890823112
1.64617E+18,6.36624292,1.317836164,-0.801881031,1.498416311,2.15057127,8.662592557,3.960405187
1.64617E+18,6.376224121,1.991599934,0.797191996,-2.019445095,2.946208388,9.555572307,3.351315931
1.64617E+18,6.386205078,2.267769575,3.351253379,-2.99542714,5.034507106,10.21342402,2.53579881
1.64617E+18,6.396186035,1.503677154,6.107794313,-3.082478231,7.004846065,10.59972236,1.942189297
1.64617E+18,6.406167236,-2.510018243,9.035496701,-4.944849435,10.60150594,10.78132025,1.662304274
1.64617E+18,6.416148193,-8.208255019,9.587977438,-6.306173444,14.10930846,10.49821106,1.893786419
1.64617E+18,6.42612915,-2.049339444,3.514275365,-8.111439489,9.074435194,9.717645509,1.852720633
1.64617E+18,6.436110352,3.385601054,-3.067015581,-10.20153428,11.17766437,9.243478608,2.462937286
1.64617E+18,6.446091309,2.695908479,-6.073565296,-10.30743445,12.26374017,8.411855099,3.012210205
1.64617E+18,6.456073242,2.486994802,-6.95297731,-9.790583831,12.2631386,7.500723171,3.086375203
1.64617E+18,6.466054199,5.023471136,-6.162180568,-7.71795572,11.08036877,6.585993067,2.888536452
1.64617E+18,6.476034912,7.633520948,-4.225678836,-3.820129951,9.524725536,5.708010662,2.718336842
1.64617E+18,6.486016113,8.794324723,-0.027045828,-1.350725019,8.897490482,4.960018285,2.591339671
1.64617E+18,6.49599707,8.378405834,2.75734056,-0.0796376,8.820824986,4.272293909,2.357102761
1.64617E+18,6.505978027,6.766378049,3.793077108,0.456101115,7.770414022,3.6246908,1.854496097
1.64617E+18,6.515959229,4.830926119,3.965252707,0.821562175,6.303652957,3.137299274,1.239326243
1.64617E+18,6.525940186,3.036908612,2.280157932,2.085887991,4.332766186,2.731028739,0.669805087
1.64617E+18,6.535921143,0.679664518,-0.505533693,2.733179348,2.861429279,2.513519922,0.421480236
1.64617E+18,6.545902344,-1.7423107,-1.751516335,1.958137225,3.152420885,2.483439162,0.406027712
1.64617E+18,6.555883301,-2.087878288,-2.105831878,0.95638909,3.115837565,2.377311008,0.352465002
1.64617E+18,6.565864502,-0.98749128,-2.06641289,-0.217496577,2.300544723,2.28284949,0.25497785
1.64617E+18,6.575845215,-0.274333658,-1.625307538,-1.210095336,2.044801768,2.33040701,0.295046178
1.64617E+18,6.585826904,0.095208094,-0.853823984,-1.828473903,2.020246715,2.447219165,0.37833006
1.64617E+18,6.595808105,0.868274534,0.090054365,-2.176246307,2.344793902,2.569417616,0.416143057
1.64617E+18,6.605789063,1.350558869,0.050771571,-2.56185832,2.896498759,2.616169971,0.414540364
1.64617E+18,6.61577002,0.975431425,-0.278558583,-1.998195386,2.240947601,2.606701326,0.409074495
1.64617E+18,6.625751221,1.687189701,-0.7984645,-1.082321481,2.157678019,2.719258913,0.446125681
1.64617E+18,6.635732178,2.081308262,-1.470995513,-0.247207459,2.560621683,2.888145276,0.515795353
1.64617E+18,6.645713135,0.748570296,-1.908473322,0.412596466,2.091139343,2.946174066,0.508270906
1.64617E+18,6.655694336,-0.027602293,-1.831312926,1.166077915,2.17122238,2.990499883,0.447461833
1.64617E+18,6.665675293,-0.428000883,-1.293161157,2.41896493,2.77611993,3.079031116,0.354540279
1.64617E+18,6.675656494,-0.677883991,-0.980858126,2.983499094,3.212923312,3.191611992,0.414203909
1.64617E+18,6.685637207,-0.320458354,-0.701684042,3.14912834,3.24223123,3.302353268,0.535404181
1.64617E+18,6.695618164,-0.825627963,-0.575689764,2.626032978,2.81231745,3.472513661,0.725801552
1.64617E+18,6.705600098,-1.580011768,-0.634696664,2.225056223,2.801812313,3.71275919,0.853832972
1.64617E+18,6.715581055,-2.586345696,-0.726494658,2.028916396,3.366523472,3.950441956,0.89690349
1.64617E+18,6.725562012,-3.317872503,-0.848474439,1.751483894,3.846541648,4.139933657,0.95200021
1.64617E+18,6.735543213,-2.6569197,-0.432116575,1.618445543,3.140909582,4.338184428,1.06944113
1.64617E+18,6.74552417,-2.14609433,0.523656794,1.242269467,2.53439751,4.759622342,1.316449596
1.64617E+18,6.755505371,-2.525475924,1.516947701,0.814398859,3.056534716,5.41077712,1.628229372
1.64617E+18,6.765486328,-3.209790606,2.019275292,0.919140359,3.901928682,6.059016181,1.838703902
1.64617E+18,6.775467285,-3.511374967,1.869241967,1.685670237,4.320336079,6.612620652,1.936694778
1.64617E+18,6.785448486,-3.674062314,1.781937193,2.78701849,4.943835162,7.135086815,1.952496462
1.64617E+18,6.795429199,-3.407329194,2.207466206,3.272774885,5.21477274,7.588984301,1.917613504
1.64617E+18,6.805409912,-2.970088992,2.586843124,3.36230961,5.178639965,7.903290877,1.753248001
1.64617E+18,6.815391113,-2.477312197,2.592884158,3.850017139,5.261440482,8.069314022,1.554748046
1.64617E+18,6.82537207,-1.892015524,2.220800903,5.046398423,5.82904936,8.11468598,1.476811286
1.64617E+18,6.835354248,-1.231055561,1.715349628,7.04573275,7.355288718,8.065924004,1.557329594
1.64617E+18,6.845335205,-1.348208068,1.350327398,8.842402233,9.045945297,7.833207335,1.800955928
1.64617E+18,6.855316162,-2.269509113,1.183230126,9.189145294,9.538925326,7.249069791,2.213047838
1.64617E+18,6.865297363,-3.155458419,1.566498791,8.755826942,9.437973391,6.541790033,2.482064807
1.64617E+18,6.87527832,-3.696128892,2.694723068,8.377593933,9.544997711,5.986362268,2.391632167
1.64617E+18,6.885259277,-3.658833473,3.669416827,7.941788441,9.482810019,5.688964759,2.097439701
1.64617E+18,6.895240479,-3.025297085,3.565457855,6.927377004,8.357838496,5.761880141,2.236149039
1.64617E+18,6.905221191,-2.412852731,2.238722345,5.994699849,6.838871421,6.15563708,2.90518786
1.64617E+18,6.915201904,-2.160557739,0.117153384,5.289737224,5.715160064,6.781972429,3.58143098
1.64617E+18,6.925183105,-3.122719348,-1.143484391,4.179944675,5.341429599,7.393318693,3.858233099
1.64617E+18,6.935164063,-3.276059314,0.898608297,3.707013567,5.028122023,7.753777234,3.817865109
1.64617E+18,6.94514502,-1.197452639,2.144704337,2.058061826,3.204569861,7.926899107,3.728551135
1.64617E+18,6.955126221,0.111344369,2.429732408,0.407171811,2.466127739,8.120818405,3.522645919
1.64617E+18,6.965108154,0.599199234,3.488994793,-1.597175084,3.883695745,8.260185073,3.317784062
1.64617E+18,6.975089355,0.917928499,5.500435153,-3.475767355,6.571022623,8.101810323,3.552419591
1.64617E+18,6.985070313,2.353165885,8.417204059,-5.2818076,10.21196384,7.545706472,4.135879865
1.64617E+18,6.99505127,3.869945244,9.63902432,-6.579497633,12.29540789,6.599852763,4.484805077
1.64617E+18,7.005032471,4.967558695,9.648726798,-7.341234869,13.10222491,5.553504375,4.248295101
1.64617E+18,7.015012939,4.353804281,8.124133551,-7.413444365,11.8286227,4.610793152,3.437124406
1.64617E+18,7.024993896,2.759018138,5.192879024,-6.741884828,8.946015017,3.885860751,2.465499958
1.64617E+18,7.034975098,1.206795564,3.004164281,-5.933576395,6.759340751,3.347432222,1.799659616
1.64617E+18,7.044956055,-0.926327494,1.526163273,-4.824006549,5.143762839,3.027126937,1.405855379
1.64617E+18,7.054937012,-2.422084377,0.829369341,-2.88854059,3.859794421,2.93117638,1.285730588
1.64617E+18,7.064918213,-2.026015852,0.772690592,-0.76679262,2.29994824,3.045542725,1.408270356
1.64617E+18,7.07489917,-0.52623702,0.685773356,-0.522357548,1.009984111,3.415988419,1.632755637
1.64617E+18,7.084881348,0.691132837,0.221696878,0.202083538,0.753426745,4.000332489,1.710889886
1.64617E+18,7.094862305,1.628150652,0.342667775,0.766583215,1.831924009,4.674759489,1.625179499
1.64617E+18,7.104843262,3.32585941,0.51075172,1.477919174,3.675112681,5.347784295,1.700374169
1.64617E+18,7.114824463,3.910052798,0.699237233,2.278712556,4.579298691,5.934655063,2.006923978
1.64617E+18,7.124805176,3.189989635,-0.023496026,1.584087347,3.561729728,6.520594408,2.351458025
1.64617E+18,7.134785889,3.422452821,-0.773214908,-0.579774987,3.556287902,7.281821255,2.497962609
1.64617E+18,7.14476709,2.861242833,-1.286453184,-2.768815017,4.184257275,8.030195084,2.388347623
1.64617E+18,7.154748047,1.771216038,-2.054816561,-4.204178075,5.003457868,8.674207253,2.117382331
1.64617E+18,7.164729004,2.006690535,-3.089313922,-4.741541324,6.004405178,9.179449941,1.752569806
1.64617E+18,7.174710205,2.586307702,-4.047071159,-4.888932318,6.853424815,9.477033094,1.406706387
1.64617E+18,7.184691162,3.210357008,-4.627875489,-4.948922384,7.497696741,9.594904556,1.218757115
1.64617E+18,7.194672119,3.886745572,-5.470311233,-5.317865586,8.562172068,9.589779921,1.227640059
1.64617E+18,7.20465332,4.43719948,-5.966801788,-5.98272884,9.543820366,9.390228194,1.508512506
1.64617E+18,7.214635254,4.948191147,-6.422680931,-6.575018442,10.43869213,9.198133468,1.596466392
1.64617E+18,7.224616211,5.39515107,-6.785306621,-7.050545703,11.1739982,9.332818227,1.74531759
1.64617E+18,7.234597168,5.052885447,-6.619247459,-7.2481784,11.04002619,9.944422923,2.943607457
1.64617E+18,7.244577881,4.99526211,-6.330321796,-6.917500338,10.62437897,11.27886247,5.255037368
1.64617E+18,7.254559082,5.043701439,-6.006721126,-6.292948051,10.05588475,12.53755643,6.342446159
1.64617E+18,7.264540039,4.28547981,-5.377819412,-5.775670729,8.9802367,12.9937859,6.311537666
1.64617E+18,7.274520996,3.66833926,-5.056328865,-5.04896915,8.032139441,12.99042062,6.313685376
1.64617E+18,7.284502197,2.818408485,-5.072629427,-4.666329139,7.446450384,12.71516806,6.578302064
1.64617E+18,7.294483154,-0.322218568,-4.779793313,-4.491180954,6.566654801,12.18580996,7.167573834
1.64617E+18,7.304464111,-6.225988146,-2.996858926,-3.219332633,7.622873108,11.64768265,7.747772928
1.64617E+18,7.314445313,-11.59134029,1.792972966,1.151097204,11.78553972,11.20604322,8.083218609
1.64617E+18,7.32442627,-11.65371579,9.498667754,8.538845402,17.29004516,10.50068204,8.306547053
1.64617E+18,7.334406982,-10.87256074,16.94225241,13.76036074,24.38442169,9.240401901,8.135138548
1.64617E+18,7.34438916,-8.767824838,17.54387741,12.41381987,23.21131859,7.501781367,6.381714808
1.64617E+18,7.354369873,-5.323759905,9.650281042,9.603167409,14.61817937,6.059279527,3.759190766
1.64617E+18,7.364350586,-4.22195134,3.243710119,7.189912089,8.946583946,5.405641367,2.60535098
1.64617E+18,7.374331543,-3.16377149,0.095408585,4.225608694,5.27961378,5.121780373,2.345799724
1.64617E+18,7.384312744,-1.521351489,-1.077244032,1.076978075,2.152869441,5.746379113,3.034971782
1.64617E+18,7.394293701,-0.987075101,0.047846624,-0.654616878,1.185381715,6.953954852,3.695448011
1.64617E+18,7.404274658,1.128688388,2.989813684,0.26188305,3.206478765,8.232908007,3.690847724
1.64617E+18,7.414255859,2.483333065,3.893751652,1.030968895,4.731927926,9.131657471,3.443415622
1.64617E+18,7.424236816,2.225457936,4.092199756,0.521049388,4.687243788,9.618723816,3.11549248
1.64617E+18,7.434217773,4.357015644,5.46637857,-0.331891675,6.99821635,10.08966215,2.656594369
1.64617E+18,7.44419873,2.87244578,8.013246826,-2.176235639,8.786300189,10.21126402,2.537464405
1.64617E+18,7.454179688,-0.474269225,7.303245622,-3.428283427,8.081797769,9.968902687,2.767325242
1.64617E+18,7.464160645,-0.885943315,1.493340615,-5.855970008,6.107974008,9.703071193,3.049162226
1.64617E+18,7.474142578,2.439327335,-4.710386599,-10.23237132,11.52560118,9.562559601,3.238114808
1.64617E+18,7.484123535,3.09299641,-7.113335629,-11.92843874,14.22862683,8.850161726,3.500864293
1.64617E+18,7.494104736,3.249266584,-7.814820349,-11.12065872,13.97491326,7.871231788,3.217219949
1.64617E+18,7.504085693,4.741161092,-6.140573132,-9.407855265,12.19397341,6.943372996,2.602324461
1.64617E+18,7.51406665,7.438709155,-2.422124855,-5.568543644,9.60259137,6.178042516,2.001694337
1.64617E+18,7.524047852,8.716767436,0.060001172,-3.508698734,9.396627133,5.569975833,1.780387013
1.64617E+18,7.534028809,7.61200762,0.801236887,-2.981445376,8.214235028,4.854847576,1.51636433
1.64617E+18,7.544009766,5.781314872,1.216620354,-2.362206101,6.362686885,4.175114595,1.375034624
1.64617E+18,7.553990967,4.787123217,2.11545603,-1.422133282,5.423482828,3.773469791,1.259100101
1.64617E+18,7.56397168,3.484134493,3.158675043,-0.021283392,4.702858086,3.543732005,1.141143039
1.64617E+18,7.573952637,1.830028731,3.428625957,2.066349177,4.401622432,3.34976371,1.091399702
1.64617E+18,7.583933838,-0.32463469,2.606649648,3.578773264,4.439327442,3.150267487,1.062853853
1.64617E+18,7.593914795,-2.10538238,0.842244605,4.112597816,4.696325344,2.897298244,1.02635969
1.64617E+18,7.603896729,-2.622009714,-1.027941364,3.561751402,4.540668611,2.590806658,0.892230186
1.64617E+18,7.613877686,-2.05778827,-1.524102249,2.417968612,3.521924536,2.311010152,0.639937765
1.64617E+18,7.623858643,-1.090320371,-1.343960201,1.430574947,2.245344565,2.169785609,0.49698896
1.64617E+18,7.633839844,0.316892661,-1.239284606,0.609403891,1.416905217,2.171570024,0.497288991
1.64617E+18,7.643820801,1.833458121,-1.459202199,-0.118308911,2.346238849,2.28281534,0.436772451
1.64617E+18,7.653801758,2.584241417,-1.543040758,-0.84454353,3.126104966,2.303881801,0.444338332
1.64617E+18,7.663782959,2.188187505,-1.327955407,-1.040916289,2.763175137,2.214214097,0.349779217
1.64617E+18,7.673763672,1.501298881,-1.312671914,-1.347222126,2.406660204,2.167042038,0.300966915
1.64617E+18,7.683744629,1.200639526,-1.026989763,-1.072596206,1.909635008,2.145861771,0.290634072
1.64617E+18,7.69372583,0.134811791,-1.595423272,-0.312965295,1.631409486,2.23144992,0.331601753
1.64617E+18,7.703706787,-0.531415774,-1.652244645,0.1571642,1.742703554,2.353588668,0.312480738
1.64617E+18,7.713687744,-0.513096895,-1.726587646,1.098349948,2.109679106,2.483083435,0.300585118
1.64617E+18,7.723668701,0.197285417,-1.213234219,1.900306382,2.263188713,2.651024012,0.467726708
1.64617E+18,7.733650635,-0.00255553,-0.836315215,2.387095335,2.529358379,2.833851238,0.614643571
1.64617E+18,7.743631836,-0.464839937,-0.819579769,2.376966155,2.556903453,3.007904469,0.737862814
1.64617E+18,7.753612793,-0.126738374,-0.61062313,2.140426513,2.229427927,3.288340632,0.999643695
1.64617E+18,7.76359375,0.046927682,-0.741024703,2.167820132,2.291454547,3.677125407,1.23947233
1.64617E+18,7.773574951,-1.094000667,-0.949917044,1.648702442,2.194857534,4.072561908,1.359313143
1.64617E+18,7.783555664,-2.435271337,-0.737939012,1.083042489,2.765516499,4.496847519,1.369135071
1.64617E+18,7.793536621,-2.722373292,0.361058587,0.772509463,2.852796963,4.945673777,1.460617091
1.64617E+18,7.803517822,-2.398631167,1.823517742,0.385586002,3.03765123,5.494504148,1.59595318
1.64617E+18,7.813498779,-2.255578641,3.035705666,0.232422708,3.789084878,6.085233279,1.668845568
1.64617E+18,7.823479736,-2.659186476,3.046615767,0.622022914,4.091460968,6.585455241,1.655257053
1.64617E+18,7.833460693,-3.319913653,1.751509321,2.035277601,4.269890687,7.016761886,1.504244697
1.64617E+18,7.84344165,-3.605674714,0.60521338,3.921223011,5.361265083,7.418773084,1.22830093
1.64617E+18,7.853422607,-3.682313718,0.808852623,4.817404374,6.117275683,7.703647687,1.032880186
1.64617E+18,7.863404785,-3.363423124,1.466312908,5.054460733,6.245819559,7.835107085,0.89737875
1.64617E+18,7.873385742,-2.727002705,1.687480793,5.582116242,6.437713641,7.82408778,0.917282474
1.64617E+18,7.883366943,-1.936995214,1.816835487,6.750145876,7.253779084,7.703315904,1.143481422
1.64617E+18,7.893347656,-1.317241267,1.95119895,8.001978413,8.341100672,7.464516385,1.426700741
1.64617E+18,7.903328613,-1.221560879,1.872938483,8.660940334,8.944942539,7.100487061,1.60932482
1.64617E+18,7.913309814,-1.439731336,1.88205001,8.465937402,8.791304491,6.617518291,1.705176554
1.64617E+18,7.923290771,-2.178645039,2.270897937,7.79311296,8.404527426,5.982678161,1.942887431
1.64617E+18,7.933271484,-2.840950571,2.94538359,7.209567222,8.290002664,5.391944405,2.013497624
1.64617E+18,7.943252686,-2.916065141,3.7629754,6.688861094,8.210011115,5.041321414,1.768714027
1.64617E+18,7.953233643,-2.576086168,3.818900117,5.832020977,7.431869665,4.913898971,1.570653766
1.64617E+18,7.9632146,-2.439671472,2.811640306,4.877355277,6.135626504,5.186441642,2.123199883
1.64617E+18,7.973195801,-2.609962718,1.061083171,4.406250508,5.229994878,5.846649468,3.111939211
1.64617E+18,7.983176758,-2.880986814,-0.69757193,3.858647605,4.8657839,6.64342045,3.796721832
1.64617E+18,7.993157715,-3.493921143,-1.721538546,2.63180747,4.700807429,7.33796763,4.035759387
1.64617E+18,8.003139893,-3.227262257,-0.530467059,2.497740068,4.115254844,7.870919944,4.004089919
1.64617E+18,8.013120605,-1.293694241,1.182298398,1.701852433,2.44290319,8.324584645,3.804919928
1.64617E+18,8.023101807,0.950381155,2.309198733,0.018277707,2.497189861,8.790708871,3.309029069
1.64617E+18,8.03308252,2.269167752,3.885458455,-1.624368211,4.783772756,9.136080413,2.770559901
1.64617E+18,8.043063477,2.396907997,5.70186315,-3.138267923,6.935786681,9.009730161,2.986555202
1.64617E+18,8.053044678,3.225089005,8.171572179,-5.098517317,10.15729638,8.432187042,3.783794397
1.64617E+18,8.063025635,4.602938616,9.694435826,-6.86148619,12.73770476,7.645023937,4.144616625
1.64617E+18,8.073006836,5.322260022,9.552816693,-7.388954652,13.1977047,6.651003777,3.993253919
1.64617E+18,8.082987793,4.755065114,8.260819319,-6.975240579,11.8112557,5.817796077,3.35926618
1.64617E+18,8.09296875,2.90840089,6.867759863,-6.706907623,10.03033056,5.249358742,2.716421519
1.64617E+18,8.102949707,1.042048216,5.860967086,-6.278423851,8.651901856,4.850635964,2.235441751
1.64617E+18,8.112930664,-2.806274979,4.30879025,-4.901839438,7.104145448,4.571882199,1.891374743
1.64617E+18,8.122911621,-4.97292519,2.642703543,-1.923384183,5.950905283,4.469889793,1.776056652
1.64617E+18,8.132893799,-3.060425681,1.598125517,-0.687089553,3.520270241,4.524861979,1.828771179
1.64617E+18,8.142874512,-0.201766362,0.633445787,-0.951031874,1.160355487,4.890279895,1.95243045
1.64617E+18,8.152855469,2.051319366,-0.415668129,0.918463337,2.285665338,5.616400873,1.77214475
1.64617E+18,8.16283667,2.710537893,-0.188303727,0.665995473,2.79750316,6.321358391,1.707960429
1.64617E+18,8.172817627,4.811237083,-0.559217353,0.462175905,4.865627697,7.052102562,1.604038304
1.64617E+18,8.182798828,6.01661942,-0.90826986,0.716954676,6.126882355,7.680587391,1.838353867
1.64617E+18,8.192779785,5.736607715,-1.883466891,-0.250949276,6.043102775,8.259531059,2.144087565
1.64617E+18,8.202760742,4.58148374,-3.098587362,-1.949238463,5.864364202,8.850936274,2.263479214
1.64617E+18,8.212741943,2.862255225,-3.631861295,-3.954090093,6.084221388,9.373293451,2.111619431
1.64617E+18,8.222722656,1.225477176,-4.3327159,-4.688702591,6.500627152,9.745900301,1.804826264
1.64617E+18,8.232703613,1.198250585,-4.988341371,-5.015313549,7.174449393,9.947968132,1.520970055
1.64617E+18,8.242684814,2.797145332,-5.636064105,-5.597635298,8.421565266,9.968464777,1.484397271
1.64617E+18,8.252665771,3.931976168,-6.102842828,-5.868695634,9.335240523,9.742676061,1.833249865
1.64617E+18,8.262646729,4.64162549,-6.333126917,-6.360560283,10.10494487,9.356333502,2.240305693
1.64617E+18,8.27262793,5.16843198,-6.677739396,-7.282047936,11.15047599,9.215953283,2.232968561
1.64617E+18,8.282609619,5.748989058,-6.901939781,-7.830134823,11.91631903,9.375721266,2.415373771
1.64617E+18,8.29259082,5.780096144,-7.050720476,-7.736367575,11.95715493,9.962628226,3.452007748
1.64617E+18,8.302571777,5.037826994,-6.781658035,-7.181346505,11.08793597,11.2335787,5.614631135
1.64617E+18,8.312552734,4.003243123,-6.257098739,-6.408162576,9.810289891,12.47259495,6.706685232
1.64617E+18,8.322533936,2.923443853,-5.891054181,-5.418634822,8.521305455,12.9816231,6.678415776
1.64617E+18,8.332514648,1.646303856,-5.587241914,-4.530804524,7.379415846,12.92822317,6.715896258
1.64617E+18,8.342495605,0.190873285,-4.958023974,-3.656842007,6.163678107,12.59754319,7.053875872
1.64617E+18,8.352476807,-3.296482509,-3.546555586,-2.548706578,5.471814934,12.27311223,7.408046562
1.64617E+18,8.362458008,-8.62057676,-1.16599842,0.189704826,8.701142678,11.91179479,7.808262375
1.64617E+18,8.372438965,-10.88487311,2.898285155,5.969502279,12.74815582,11.30824134,8.253669032
1.64617E+18,8.382419922,-8.650179286,10.06016883,11.84430032,17.78538863,10.32393713,8.602797086
1.64617E+18,8.392400879,-9.171739985,17.44242428,14.8352661,24.66665967,8.743711166,8.538183985
1.64617E+18,8.402381836,-6.485227111,17.70916266,13.98386554,23.47809848,6.841703542,6.699861482
1.64617E+18,8.41236377,-3.509030157,10.36891914,10.10936453,14.9005714,5.286863358,3.861609135
1.64617E+18,8.422344971,-2.702012056,4.259157328,6.193203482,7.987306159,4.55976741,2.385343884
1.64617E+18,8.432325928,-1.538349678,1.232997488,3.563621579,4.072616026,4.431120731,2.226416898
1.64617E+18,8.442306641,-2.447967737,-0.425516738,1.532678062,2.919368524,4.798064317,2.430156076
1.64617E+18,8.452287842,-1.785991436,0.12566753,-0.498985587,1.858640459,5.502976,2.780131949
1.64617E+18,8.462268799,-0.220638309,1.959564042,-1.793570347,2.665608203,6.381704713,2.876429463
1.64617E+18,8.47225,-0.645364773,2.117604733,-1.88120713,2.905113726,7.059957863,2.715360777
1.64617E+18,8.482230957,0.36482583,1.599053153,-1.114778813,1.983129011,7.550964434,2.337276124
1.64617E+18,8.492211914,5.16781531,2.152608242,-0.73747344,5.646583427,8.197201934,1.4230874
1.64617E+18,8.502192871,6.349407605,4.049190635,-2.483780809,7.929696643,8.501593227,1.142931384
1.64617E+18,8.512173828,3.386119525,4.704690433,-4.960953598,7.629611924,8.547469792,1.128167
1.64617E+18,8.522154785,0.003126023,2.211653136,-6.325332318,6.700839372,8.553318957,1.123535176
1.64617E+18,8.532135986,-1.258163494,-2.017048263,-7.36803286,7.742051879,8.450724632,1.318017237
1.64617E+18,8.54211792,-1.305502606,-5.758032196,-8.031900673,9.968485354,7.988022476,2.078417145
1.64617E+18,8.552099121,-0.044424248,-6.669350338,-8.297804941,10.64592759,7.214916883,2.576205406
1.64617E+18,8.562079834,2.316131748,-5.070625102,-7.628344422,9.448139702,6.553827103,2.456375244
1.64617E+18,8.572060791,5.576994661,-2.112221286,-5.051007963,7.815179438,5.964214584,2.397815621
1.64617E+18,8.582041992,7.927091807,1.234582712,-2.638855635,8.445504014,5.371894253,2.591212438
1.64617E+18,8.592022949,8.06137402,2.191864732,-2.394724369,8.690496355,4.669039925,2.615304937
1.64617E+18,8.602003906,7.771161825,1.949669256,-2.484780341,8.388462294,4.066775291,2.293547938
1.64617E+18,8.611984863,7.218714405,1.978535285,-1.755704142,7.688103574,3.69069097,1.811816615
1.64617E+18,8.62196582,5.469842446,1.391001354,-0.591933116,5.67489612,3.245155758,1.227688042
1.64617E+18,8.631946777,2.913186371,0.201332135,1.084538792,3.115030313,2.892803354,0.955163946
1.64617E+18,8.641927979,-0.987350849,-1.174986613,1.628077149,2.237429428,2.761704486,1.004366953
1.64617E+18,8.651908691,-3.48089332,-1.769825899,1.016151265,4.03502979,2.697664787,1.054898838
1.64617E+18,8.661889648,-2.969499794,-1.816136984,0.707477604,3.552014517,2.447972109,1.00302989
1.64617E+18,8.67187085,-1.069517237,-1.502594181,0.421802394,1.891976124,2.248761823,0.960915395
1.64617E+18,8.681852783,0.464698409,-1.338303198,-0.02788637,1.416960731,2.257688414,0.95796962
1.64617E+18,8.691833984,2.21142868,-1.264632398,-0.79228267,2.667850021,2.34848987,0.916095703
1.64617E+18,8.701814941,4.33855995,-0.794141961,-1.400390821,4.62761908,2.358472355,0.92005663
1.64617E+18,8.711795654,2.836918539,-0.815938197,-1.31788468,3.232751455,2.191946014,0.583384949
1.64617E+18,8.721776855,1.49942958,-1.174573941,-1.000244379,2.15137208,2.215707447,0.62839598
1.64617E+18,8.731757813,0.88824414,-1.516490605,-0.407240492,1.804041636,2.395220618,0.813515965
1.64617E+18,8.74173877,-0.250375275,-1.566563088,-0.183588973,1.597032435,2.659777141,0.989403405
1.64617E+18,8.751719971,-0.273366932,-1.507597689,0.134835473,1.538103012,2.924755935,1.023539608
1.64617E+18,8.761700684,0.231719602,-1.35623633,0.735019325,1.559911653,3.053800712,0.91631091
1.64617E+18,8.771681641,0.45635962,-1.193435878,1.514188465,1.981242036,3.11838199,0.827168561
1.64617E+18,8.781662842,0.38995428,-0.758267514,2.162978537,2.324975293,3.130761252,0.810822506
1.64617E+18,8.791643799,-0.056205287,-0.572329932,2.707268662,2.767674871,3.089810319,0.859372632
1.64617E+18,8.801624756,-0.972053034,-0.45277767,2.761459102,2.962355666,3.069039578,0.869359602
1.64617E+18,8.811605957,-1.916249948,-0.343823959,2.87284004,3.470365783,3.145492918,0.889988457
1.64617E+18,8.821586914,-2.525720254,-0.54244742,2.983518091,3.946503795,3.265493284,0.99982497
1.64617E+18,8.831568848,-3.344868354,-0.821495832,2.817090972,4.449606865,3.382820144,1.132846834
1.64617E+18,8.841549805,-3.484427339,-0.61507368,2.348602523,4.246820378,3.467117724,1.23577982
1.64617E+18,8.851530762,-2.007690214,0.434969042,1.944397453,2.82855078,3.590462939,1.362506266
1.64617E+18,8.861511963,-0.466511742,1.713764405,1.307898562,2.205724436,3.989351908,1.63725328
1.64617E+18,8.87149292,-0.069081281,1.851782298,0.998649584,2.105034654,4.581876366,1.930460981
1.64617E+18,8.881473633,-0.598156447,1.250184185,1.322217156,1.915465959,5.203754144,2.031423564
1.64617E+18,8.891454834,-1.668408721,1.364839908,1.380962629,2.559967464,5.825995853,1.875932907
1.64617E+18,8.901435791,-2.88747413,2.036700474,1.184924655,3.726889066,6.412301724,1.668272222
1.64617E+18,8.911416748,-3.375046634,2.887448119,1.443625421,4.670369448,6.951106622,1.5818033
1.64617E+18,8.921397949,-3.337788332,3.405264955,1.864244889,5.119772394,7.41040947,1.518431914
1.64617E+18,8.931378906,-3.008993308,3.475502859,2.622645674,5.292582657,7.719672318,1.322727927
1.64617E+18,8.941359863,-1.586861195,3.183572753,4.16894748,5.480272531,7.901057394,1.079462087
1.64617E+18,8.951341064,-0.111682406,2.252631628,6.433558299,6.817440472,7.97695799,0.921742085
1.64617E+18,8.961322754,0.365679086,1.404731773,8.000354027,8.130969014,7.838978294,1.157986957
1.64617E+18,8.971303955,-0.801711373,1.440499252,8.158926048,8.323812436,7.46360298,1.545924064
1.64617E+18,8.981284912,-2.240652436,2.025715554,7.556526556,8.137883044,6.882259945,2.105080802
1.64617E+18,8.991265625,-3.413513143,2.57423148,7.257315646,8.423026183,6.205593167,2.617821548
1.64617E+18,9.001246826,-3.967956706,3.051207187,7.617581621,9.114938039,5.67636825,2.650784633
1.64617E+18,9.011227783,-3.359525532,3.347826911,7.957146753,9.263397934,5.400068525,2.411136918
1.64617E+18,9.02120874,-2.621898655,2.716704014,7.29305799,8.212400874,5.421426042,2.445957639
1.64617E+18,9.031189941,-2.495326285,0.922124198,6.589721505,7.106433411,5.727851231,2.922024353
1.64617E+18,9.041170898,-2.1051135,-1.017411202,5.784632034,6.239278498,6.1962763,3.435774969
1.64617E+18,9.0511521,-1.428549287,-1.694375229,4.965511699,5.437643508,6.767518816,3.845847255
1.64617E+18,9.061133057,-0.862319352,-1.140892036,4.137002482,4.377215877,7.339890283,4.026991137
1.64617E+18,9.07111377,-0.371416972,-0.326545492,2.461185823,2.510382079,7.812527171,3.927669773
1.64617E+18,9.081094727,-0.956572411,0.776981567,0.60124886,1.371215273,8.330368752,3.514069803
1.64617E+18,9.091075684,-0.903615896,2.641829098,-1.416326934,3.130777005,8.755304399,2.838914325
1.64617E+18,9.101056641,1.108604216,5.438206953,-3.089345194,6.351940798,8.750830383,2.84779619
1.64617E+18,9.111038818,3.468230237,7.831487406,-4.05613154,9.476973095,8.262290109,3.549914912
1.64617E+18,9.121019775,5.231897614,8.957284165,-4.422352917,11.27665276,7.467869481,4.0437476
1.64617E+18,9.131000732,5.80471153,9.067457189,-4.806950784,11.7906841,6.590401985,4.073974773
1.64617E+18,9.140981934,5.83934679,8.803001365,-5.590386058,11.95170365,5.547303944,3.942200398
1.64617E+18,9.150962891,4.374713798,8.295364563,-6.051836279,11.16135818,4.633611936,3.369145898
1.64617E+18,9.160944092,0.485322753,6.988176049,-5.81421644,9.10358476,3.971157899,2.57916431
1.64617E+18,9.170925049,-2.760330974,4.873313893,-5.267731728,7.688797887,3.533621709,1.970732049
1.64617E+18,9.180905762,-3.310135186,2.444973231,-3.828307412,5.620571741,3.256780244,1.507615819
1.64617E+18,9.190886963,-2.002477009,1.055227431,-2.097666399,3.086036848,3.295003758,1.570592127
1.64617E+18,9.200867676,-0.753213884,0.434918188,-1.180783171,1.46653806,3.648618205,1.855898915
1.64617E+18,9.210848633,1.398459269,0.127649059,-0.614321985,1.532766815,4.229772379,1.986900195
1.64617E+18,9.220829834,2.424787499,-0.500437247,-0.360362421,2.501977803,4.876183648,2.05466556
1.64617E+18,9.230810791,1.334524264,-0.260304549,-0.008981471,1.359703695,5.48524415,2.160595475
1.64617E+18,9.240791748,2.685282455,-0.10604513,0.837268863,2.814783577,6.294735764,1.971416259
1.64617E+18,9.250772949,4.327521839,-0.954809493,0.971395593,4.536817809,7.007285783,1.869959849
1.64617E+18,9.260754883,4.327660955,-1.904581575,-0.0033195,4.728222852,7.590700268,1.917677864
1.64617E+18,9.270736084,3.32089565,-2.770719097,-2.346260636,4.920383238,8.190148883,1.86540074
1.64617E+18,9.280716797,2.32972685,-3.313793709,-4.429992618,6.002806888,8.745726128,1.620030808
1.64617E+18,9.290697754,1.423344996,-3.797325414,-5.235235818,6.622181313,9.123625093,1.35524012
1.64617E+18,9.300678955,2.022156546,-4.483645882,-5.364536152,7.278079803,9.343788369,1.0823449
1.64617E+18,9.310659668,3.161484256,-4.955781163,-5.421746232,7.996879506,9.400859294,0.982344389
1.64617E+18,9.320640625,3.827694833,-5.289960511,-5.585476658,8.592582816,9.271703813,1.215645553
1.64617E+18,9.330621826,4.440750743,-5.92343494,-5.880687685,9.454619839,8.966040866,1.653428831
1.64617E+18,9.340602783,4.663012561,-5.841586093,-6.55297086,9.940283765,8.553469383,1.965354028
1.64617E+18,9.35058374,4.698955689,-6.128840608,-6.921993558,10.37096266,8.389981526,1.910423081
1.64617E+18,9.360564941,4.709863452,-6.386869613,-7.211211482,10.722709,8.610878047,2.228016493
1.64617E+18,9.370546387,4.413814805,-6.473955191,-6.953846494,10.47615569,9.450875185,3.855162529
1.64617E+18,9.380527344,3.820819686,-6.459912053,-6.273309869,9.781796539,10.59963818,5.393959071
1.64617E+18,9.390508301,3.389920963,-6.050939622,-5.454746584,8.82381407,11.55286055,5.976062295
1.64617E+18,9.400490234,2.566043497,-5.534190708,-4.938789697,7.848789059,11.99839818,5.921829851
1.64617E+18,9.410471191,1.119177194,-4.9200131,-4.416140033,6.705324697,11.89657134,6.00053917
1.64617E+18,9.420452393,-0.775848764,-4.091738568,-3.647261109,5.535953342,11.50554905,6.437572716
1.64617E+18,9.430433105,-4.394617937,-2.40950269,-1.810761867,5.328905006,11.20447604,6.771463321
1.64617E+18,9.440414063,-8.111099298,1.194422551,1.327847271,8.305405193,10.9553943,7.024107477
1.64617E+18,9.450395264,-8.66229058,5.97025339,6.897490985,12.57992788,10.3305997,7.494184286
1.64617E+18,9.460376221,-9.526821836,11.79039805,11.65774782,19.12268038,9.133682014,7.979460154
1.64617E+18,9.470357178,-7.787778029,15.01260536,14.01356744,21.96378562,7.368588818,7.513237929
1.64617E+18,9.480338379,-5.277713608,12.16338264,14.04383281,19.31402025,5.869320406,5.737138751
1.64617E+18,9.490319336,-3.640964931,6.830001503,10.79033604,13.27919042,5.069860845,4.14366911
1.64617E+18,9.500300293,-0.525418543,3.061169193,6.08351795,6.830520633,4.957230293,3.928730307
1.64617E+18,9.510281494,0.08252017,0.96610947,2.62152953,2.795101816,5.449662625,4.411605796
1.64617E+18,9.520261963,-0.939668476,-1.081600474,2.07940272,2.525223179,6.083684648,4.44004741
1.64617E+18,9.53024292,-0.188821613,-1.412922678,2.454126552,2.838087601,7.098213552,4.664452492
1.64617E+18,9.540225098,1.080342583,-0.44503217,1.693500784,2.057459267,8.181837876,4.805469792
1.64617E+18,9.550206055,0.206736917,-0.254364053,0.515340217,0.610750983,9.243350139,4.497956034
1.64617E+18,9.560187256,0.774836518,1.159852173,-0.469483452,1.471748417,10.21882322,3.457427061
1.64617E+18,9.570168213,4.702322535,4.999753576,-1.219378128,6.971101496,11.06785146,1.894311324
1.64617E+18,9.58014917,5.508597417,9.421938735,-3.001965894,11.31942464,11.36603569,1.394800145
1.64617E+18,9.590130371,-1.071073673,10.8882119,-5.290770658,12.15288489,11.15164736,1.542437809
1.64617E+18,9.600111328,-5.589286572,8.184846671,-6.320167482,11.75484396,10.77463242,1.70394065
1.64617E+18,9.610092285,-1.675441542,0.986929555,-8.925971912,9.135322045,10.30752912,1.987803595
1.64617E+18,9.620073486,1.611196741,-5.821656235,-11.13796407,12.67051222,9.922447464,2.48771882
1.64617E+18,9.630054199,2.16651884,-8.285692479,-10.66024485,13.67433084,9.02712141,2.912455263
1.64617E+18,9.640034912,3.392787166,-7.281296241,-9.801329097,12.67258189,8.06972447,2.798826108
1.64617E+18,9.650016113,5.890640339,-5.019847101,-6.895266879,10.36548184,7.244371611,2.523158853
1.64617E+18,9.65999707,8.659936126,-2.064328485,-4.470582987,9.962030819,6.55896429,2.513148574
1.64617E+18,9.669978027,9.155728762,-0.048373863,-3.902740137,9.952943774,5.806084258,2.508618975
1.64617E+18,9.679959229,8.650988265,0.50840428,-3.015374826,9.175541303,4.980491144,2.3622802
1.64617E+18,9.689941162,7.911024469,1.78426885,-2.121869843,8.382735539,4.276070649,2.033736274
1.64617E+18,9.699922363,6.030044718,3.468412608,-1.33755428,7.083810894,3.849218767,1.506662112
1.64617E+18,9.70990332,2.942460981,4.373875009,0.370323186,5.28450551,3.66429286,1.175367718
1.64617E+18,9.719884277,-0.54337206,2.976041179,2.160066157,3.717251686,3.448395336,1.049473745
1.64617E+18,9.729865234,-3.197628751,0.55678808,2.505617962,4.100361443,3.240064526,1.174729142
1.64617E+18,9.739846191,-3.816061678,-1.009036757,1.986844264,4.419053296,2.962332994,1.263462953
1.64617E+18,9.749826904,-2.513965519,-1.986962922,1.435947872,3.511408631,2.668005792,1.232270395
1.64617E+18,9.759808105,-0.508296692,-2.179454748,0.955103215,2.433230502,2.505679919,1.217302478
1.64617E+18,9.769789063,0.818969017,-1.466717397,0.240586214,1.69701264,2.491529813,1.218883787
1.64617E+18,9.77977002,1.680350795,-1.27395143,-0.309941271,2.131336349,2.560587139,1.191160549
1.64617E+18,9.789751221,3.737560388,-1.207800503,-1.224189328,4.114216721,2.579554406,1.185671894
1.64617E+18,9.799732178,4.904384738,-0.44433016,-1.774856002,5.234551822,2.452925595,1.077713604
1.64617E+18,9.809713379,2.426508185,-1.61147775,-1.133197682,3.125530275,2.345175381,0.81640428
1.64617E+18,9.819694336,0.764905345,-1.340140351,-0.537322332,1.633943584,2.460321286,0.982625312
1.64617E+18,9.82967627,0.190866271,-1.216435645,0.484051052,1.323046119,2.632830039,0.973792154
1.64617E+18,9.839657227,-0.103668501,-1.115523202,0.960620225,1.47578128,2.758036509,0.872567624
1.64617E+18,9.849638184,-0.30007023,-1.24317986,1.38909026,1.888149903,2.931210234,0.766270631
1.64617E+18,9.859618896,-0.065043404,-1.137130638,1.988649559,2.291729435,3.122617226,0.719445849
1.64617E+18,9.869600098,0.033352746,-0.719974316,2.276201011,2.387585908,3.169005201,0.678146387
1.64617E+18,9.879581055,-0.200985514,-0.521393526,2.252739764,2.321009011,3.217567683,0.636562671
1.64617E+18,9.889562256,-1.830072424,-0.455750548,2.133969008,2.84792861,3.375161867,0.588345571
1.64617E+18,9.899543213,-3.336927916,-0.641326311,2.394718085,4.157049683,3.574212019,0.702030952
1.64617E+18,9.90952417,-3.399822472,-0.521053334,2.542114924,4.276989327,3.741463828,0.969312784
1.64617E+18,9.919505371,-2.657215468,0.090196988,2.052842046,3.359031111,3.930371908,1.209575885
1.64617E+18,9.929486328,-1.810858313,1.311914373,1.277054657,2.575110822,4.273065186,1.458914894
1.64617E+18,9.939467285,-1.441575941,2.793720034,0.636523587,3.207518527,4.919989526,1.923053969
1.64617E+18,9.949448486,-1.161509584,3.561249297,0.65213076,3.802219825,5.641367784,2.431241905
1.64617E+18,9.959429199,-1.134873945,2.229442475,1.155434722,2.755609192,6.259428278,2.659984356
1.64617E+18,9.969410156,-1.660896884,0.723825146,2.229986227,2.873210725,6.953779742,2.559075722
1.64617E+18,9.979391357,-2.448433455,0.693528792,2.951341622,3.896950851,7.634415152,2.272331418
1.64617E+18,9.989373047,-3.497718198,1.662670762,2.900327474,4.838430128,8.174768601,1.937065634
1.64617E+18,9.999354248,-4.323037387,2.7662779,2.764582202,5.829567773,8.486413131,1.595876191
1.64617E+18,10.00933521,-4.047772001,2.891546786,3.64347633,6.166070122,8.565288503,1.477732521
1.64617E+18,10.01931616,-2.760855875,2.487375618,5.67802284,6.785963896,8.536432092,1.526320183
1.64617E+18,10.02929736,-1.094886802,2.39005097,8.653855929,9.044354216,8.358963661,1.79844777
1.64617E+18,10.03927832,-0.275300312,2.087236483,10.2064279,10.42130111,7.880423293,2.153937846
1.64617E+18,10.04925928,-1.219845892,1.875160835,9.728953597,9.982824763,7.150343978,2.393011871
1.64617E+18,10.05924048,-3.072768446,2.227888231,8.925671467,9.699123828,6.455101289,2.477548037
1.64617E+18,10.06922119,-4.17624056,2.736681219,8.292379994,9.679564828,5.926420872,2.285534673
1.64617E+18,10.07920215,-4.093932863,3.102012076,7.753467763,9.30048534,5.619230951,1.940902775
1.64617E+18,10.08918311,-3.25750542,2.762408365,6.711020903,7.95487543,5.662683772,2.025837774
1.64617E+18,10.09916406,-2.814782695,1.444435422,5.813156118,6.618321491,6.059845684,2.710055237
1.64617E+18,10.10914502,-2.26722597,0.036732525,5.422491497,5.877506011,6.671358509,3.375346062
1.64617E+18,10.11912622,-2.042312468,-0.959142553,4.474586962,5.01127959,7.290664756,3.723109918
1.64617E+18,10.12910718,-2.550892105,0.164141345,3.406562301,4.258950531,7.735898732,3.689976648
1.64617E+18,10.13908936,-1.541088601,2.143475087,1.663769955,3.12050797,7.967021841,3.534046198
1.64617E+18,10.14907031,-0.310077209,2.973657499,-0.49449412,3.030397867,8.128978131,3.340015611
1.64617E+18,10.15905127,0.62758011,3.747047763,-2.243733743,4.412319667,8.153820739,3.302716248
1.64617E+18,10.16903247,0.771633776,5.141691273,-4.077847113,6.607665617,8.06019446,3.41868881
1.64617E+18,10.17901343,1.043113799,7.587433151,-6.009430969,9.735013549,7.503374336,4.011915454
1.64617E+18,10.18899414,2.117958369,8.936541821,-7.608793919,11.92649455,6.65635534,4.332661378
1.64617E+18,10.1989751,4.010632649,8.69271436,-8.395968379,12.73344974,5.799086937,4.04354906
1.64617E+18,10.20895605,5.29059764,7.103648933,-8.200388523,12.07056848,4.915431877,3.335076586
1.64617E+18,10.21893701,4.16446712,5.00648493,-6.8667615,9.463619352,4.061269218,2.337900651
1.64617E+18,10.22891821,1.710445489,3.580763561,-5.236391418,6.570181621,3.540590279,1.509953177
1.64617E+18,10.23889917,-0.176953335,2.991898673,-3.67226111,4.740070866,3.313620378,1.169762595
1.64617E+18,10.24888013,-2.059812761,1.872163407,-1.732876809,3.278823946,3.369709626,1.247668077
1.64617E+18,10.25886133,-3.322272783,0.983449896,0.279823634,3.476056877,3.649144867,1.486148981
1.64617E+18,10.26884229,-0.841919903,0.486751836,0.367055489,1.039464384,3.947703167,1.705144747
1.64617E+18,10.278823,1.217740298,-0.101254389,-0.326549876,1.264823587,4.551813772,1.636541913
1.64617E+18,10.28880542,3.281924406,-0.688538144,0.054151715,3.353810518,5.263824411,1.600049318
1.64617E+18,10.29878613,3.547188039,-0.864602567,1.362256321,3.896899135,5.937724335,2.018195072
1.64617E+18,10.30876709,3.11584654,-1.318827514,1.002808677,3.528941897,6.652459293,2.398630374
1.64617E+18,10.31874805,3.993085302,-1.465319221,0.169442082,4.256829955,7.377438107,2.440247594
1.64617E+18,10.328729,3.365784008,-2.117608825,-1.637492481,4.300482618,8.032351331,2.393231123
1.64617E+18,10.33871021,2.403119126,-2.760149188,-3.834945535,5.30096334,8.649509395,2.132886811
1.64617E+18,10.34869116,1.274780867,-3.466170382,-4.821210196,6.073176362,9.05206301,1.819811042
1.64617E+18,10.35867212,1.476660114,-4.173785568,-4.706567625,6.461639875,9.246268898,1.579278606
1.64617E+18,10.36865259,3.032378568,-4.7515007,-4.285136988,7.080570435,9.286836624,1.510960106
1.64617E+18,10.3786333,4.805762744,-5.412679128,-4.232564212,8.384929976,9.16132881,1.725855626
1.64617E+18,10.3886145,6.170655551,-6.093452484,-5.163105232,10.09280975,8.824228725,2.127146933
1.64617E+18,10.39859546,6.272747559,-6.506250026,-6.347974357,11.04424872,8.617410753,2.094035917
1.64617E+18,10.40857642,5.901592526,-6.032250704,-6.705533412,10.77873004,8.661889898,2.149111288
1.64617E+18,10.41855762,5.920650278,-6.130460903,-6.643204674,10.80596219,9.156009641,2.984629495
1.64617E+18,10.42853857,5.283742367,-5.960728021,-6.798227477,10.47206325,9.830449583,3.902233225
1.64617E+18,10.43851953,3.922414267,-5.451441697,-6.471479157,9.32649949,10.17511647,4.091316105
1.64617E+18,10.44850146,2.469221538,-4.845248659,-5.888166643,8.015235242,10.24431903,4.082219431
1.64617E+18,10.45848242,0.763238288,-4.053295732,-5.490747287,6.867317144,10.15595734,4.138685398
1.64617E+18,10.46846362,-1.21693132,-2.960782235,-4.867155955,5.825492285,10.03882215,4.245307249
1.64617E+18,10.47844458,-3.829000655,-1.960327428,-2.57591841,5.013929127,9.890993207,4.411917776
1.64617E+18,10.48842529,-7.749127103,0.151670571,2.079113382,8.02463004,9.634811744,4.749158427
1.64617E+18,10.49840649,-7.444920869,4.680106612,7.393767605,11.48904017,9.02825162,5.274380195
1.64617E+18,10.50838745,-7.400934428,9.255007467,10.32894603,15.71992747,8.221804607,5.450073977
1.64617E+18,10.51836841,-8.77034062,10.7620674,10.73658341,17.55036161,7.024569578,4.964838477
1.64617E+18,10.52834961,-5.843627828,6.941495546,10.55456096,13.91873211,5.720167148,3.535968749
1.64617E+18,10.53833057,-3.578239303,4.09102662,8.416088791,10.01852513,4.918523794,2.267622845
1.64617E+18,10.54831152,-3.787977155,2.887566192,5.307840451,7.131618308,4.803618291,2.022104449
1.64617E+18,10.55829272,-4.224976241,2.654142052,2.747567354,5.695965294,5.012203921,2.334877467
1.64617E+18,10.56827368,-3.224198778,2.530051562,1.449673615,4.347202808,5.033345785,2.341919635
1.64617E+18,10.57825488,-1.486263663,1.55588212,1.176059796,2.452114493,5.362370498,2.450997131
1.64617E+18,10.58823535,0.738083973,1.292977618,1.273277184,1.959028805,6.413377572,3.135527145
1.64617E+18,10.59821753,2.505300567,2.315035769,0.302916487,3.424570037,7.683266141,3.609990319
1.64617E+18,10.60819849,1.169510228,3.258454099,-1.434941618,3.747577182,8.704744587,3.704384091
1.64617E+18,10.61817944,-0.138892922,3.450291261,-2.895388556,4.506337306,9.330364388,3.323019491
1.64617E+18,10.6281604,2.537291742,4.563782079,-2.751576298,5.902298567,9.81418817,2.912261931
1.64617E+18,10.6381416,3.703875561,7.75562231,-2.190691304,8.869470107,10.16625108,2.615787016
1.64617E+18,10.64812256,0.018322862,9.022934741,-1.883653646,9.217474606,10.0685599,2.679851103
1.64617E+18,10.65810352,-1.180258416,4.772368716,-3.275465147,5.90738394,9.781926035,2.899815929
1.64617E+18,10.66808472,1.275755411,-2.622676654,-7.058658283,7.637449931,9.654885856,3.088467311
1.64617E+18,10.67806567,1.480033975,-7.064019518,-10.76695751,12.96218524,9.188961569,3.656821582
1.64617E+18,10.68804688,0.125079793,-9.11000629,-11.48244737,14.65791449,8.191312647,3.847254784
1.64617E+18,10.69802734,1.097697038,-7.374533912,-11.42117779,13.6393545,7.139620445,3.339779679
1.64617E+18,10.7080083,4.653649982,-3.677076986,-8.05593972,10.00377519,6.263941792,2.583038813
1.64617E+18,10.7179895,8.056737593,0.281816708,-4.725530977,9.344575127,5.710128743,2.300028798
1.64617E+18,10.72797046,8.457801442,1.400786835,-3.910876682,9.422927645,5.172089797,1.996135825
1.64617E+18,10.73795142,6.778613261,1.263354048,-3.840158301,7.892558328,4.571461982,1.457737728
1.64617E+18,10.74793359,5.503288789,1.065358948,-2.985925444,6.351135957,4.061225895,1.038739936
1.64617E+18,10.75791455,4.20367451,1.273258772,-1.486450856,4.636982147,3.631901254,0.878423505
1.64617E+18,10.76789575,2.490962829,1.567356869,0.456304675,2.978207066,3.398664613,0.890156417
1.64617E+18,10.77787671,0.927501872,2.206881099,1.784319704,2.985696018,3.363655777,0.912605321
1.64617E+18,10.78785767,-0.224685465,2.876484242,2.970382715,4.140992468,3.393434955,0.904609863
1.64617E+18,10.79783862,-0.565893689,2.59965409,4.094024049,4.882567968,3.264895004,0.880249773
1.64617E+18,10.80781934,-0.659749784,0.850418559,4.333993665,4.465644701,3.024459453,0.719187576
1.64617E+18,10.81780029,-0.945388096,-1.153390868,3.672968674,3.96418567,2.805119325,0.563916733
1.64617E+18,10.82778149,-1.168661429,-2.245447269,2.294709313,3.416649499,2.57412629,0.512591081
1.64617E+18,10.83776245,-0.7442414,-2.359479891,1.290023736,2.790197458,2.387753789,0.511190457
1.64617E+18,10.84774341,0.764686734,-1.752923864,0.759882548,2.05788954,2.216082372,0.62320078
1.64617E+18,10.85772461,1.895930067,-1.244655193,0.409312038,2.304615741,2.158640235,0.660491842
1.64617E+18,10.86770557,2.031980459,-1.601801575,0.460754896,2.628118709,2.13273875,0.65933716
1.64617E+18,10.87768652,2.82180631,-1.64216398,0.349283101,3.283487791,2.131410559,0.658350552
1.64617E+18,10.88766772,2.411150457,-1.518309637,-0.188415663,2.855592958,2.151970585,0.696134583
1.64617E+18,10.89764966,1.73345344,-1.739142591,-0.334752471,2.47821246,2.22596858,0.798760275
1.64617E+18,10.90763062,1.103839194,-1.923064742,-0.496438533,2.272243425,2.257956308,0.814471808
1.64617E+18,10.91761157,0.006979191,-1.579867391,-0.490439584,1.654255321,2.315219845,0.833374227
1.64617E+18,10.92759229,-0.4858242,-1.415446644,-0.414801283,1.552924486,2.523502443,0.899784725
1.64617E+18,10.93757349,-0.554151228,-0.786198308,0.476628793,1.073483288,2.73739812,0.897869667
1.64617E+18,10.94755444,-1.026273139,-0.591342676,0.893171367,1.483468168,3.001580589,0.745081924
1.64617E+18,10.9575354,-1.288293259,-0.686121731,1.433185422,2.045600891,3.270111761,0.623543881
1.64617E+18,10.9675166,-1.729502072,-0.900464154,1.74222799,2.614836798,3.496094033,0.543123707
1.64617E+18,10.97749756,-2.82400762,-1.012222402,1.781606645,3.489088057,3.697694459,0.552670135
1.64617E+18,10.98747852,-3.010936551,-0.665422057,1.849221215,3.595572907,3.838045726,0.6512866
1.64617E+18,10.99745972,-2.395646598,0.05880524,1.444550281,2.79808974,4.006906164,0.773893229
1.64617E+18,11.00744067,-2.458881345,1.290623163,0.61768094,2.844878796,4.328463356,0.867233965
1.64617E+18,11.01742139,-2.550257314,2.728717692,0.126743927,3.737081299,4.726526337,0.998529819
1.64617E+18,11.02740259,-2.261615875,2.812092726,0.779240233,3.691881256,5.08477254,1.201330521
1.64617E+18,11.03738354,-1.938215257,1.681717992,2.686756327,3.715307975,5.463843407,1.296317285
1.64617E+18,11.0473645,-2.134954512,1.487310103,3.257085149,4.16877989,5.843845617,1.284974306
1.64617E+18,11.05734644,-2.475520638,1.987841458,2.908084664,4.305423615,6.196357928,1.260389126
1.64617E+18,11.06732739,-2.719275326,2.393236615,2.884900188,4.630841056,6.548886486,1.172114121
1.64617E+18,11.07730859,-2.635190683,2.551756613,3.237568547,4.892600724,6.813104152,0.994277283
1.64617E+18,11.08728955,-2.022305745,2.581221192,4.14368269,5.284177288,6.967731915,0.780928117
1.64617E+18,11.09727051,-1.187450374,2.480190675,5.348153172,6.013661657,7.06261899,0.609414135
1.64617E+18,11.10725171,-0.756570063,2.333847437,6.369326942,6.825508612,7.08529216,0.573101967
1.64617E+18,11.11723267,-1.024793275,2.362817511,6.851467485,7.319543329,7.025126733,0.626326392
1.64617E+18,11.12721362,-2.193423359,2.264294593,6.78608988,7.482589919,6.829428123,0.788500111
1.64617E+18,11.13719458,-3.003923458,2.031211229,6.582614303,7.515330083,6.492667821,1.096577406
1.64617E+18,11.14717554,-3.361297803,1.886902711,6.658634882,7.693902992,6.130847269,1.280885851
1.64617E+18,11.15715649,-3.402323056,1.83120362,6.811086375,7.830709194,5.974757688,1.17132009
1.64617E+18,11.16713745,-2.817152347,1.778181055,6.465176842,7.273017723,6.074139004,1.352691528
1.64617E+18,11.17711841,-2.434098786,0.933187443,5.887569846,6.438878349,6.455542252,2.013331265
1.64617E+18,11.18709961,-2.360757656,-0.389151878,5.755542718,6.23304804,7.092651266,2.772262686
1.64617E+18,11.19708154,-2.761406495,-1.03783089,5.499095429,6.240393363,7.75996843,3.247459653
1.64617E+18,11.2070625,-3.077316026,-0.451378325,5.390987521,6.223854334,8.321882918,3.417598973
1.64617E+18,11.2170437,-2.165466554,1.116273728,4.777207096,5.362557232,8.754379818,3.398335348
1.64617E+18,11.22702466,-0.619097529,2.584025144,3.142077252,4.114986896,9.036544128,3.217317338
1.64617E+18,11.23700562,0.714240156,3.699626087,0.995091819,3.89712457,9.207658237,2.988370031
1.64617E+18,11.24698657,1.886951226,5.564969877,-1.756218229,6.133007185,9.179872383,3.03848965
1.64617E+18,11.25696753,1.849962681,7.662672808,-3.966519658,8.824522349,8.741722738,3.691904815
1.64617E+18,11.26694849,2.024158387,9.259262201,-5.752523662,11.0870502,7.965074395,4.350884122
1.64617E+18,11.27692944,3.68931629,9.704902859,-7.50327252,12.80996849,7.071182526,4.532125233
1.64617E+18,11.2869104,4.639589892,8.91433525,-8.098107129,12.90621968,6.207426707,4.164253429
1.64617E+18,11.2968916,3.62542454,7.892448363,-8.075531141,11.85953825,5.474521642,3.515138195
1.64617E+18,11.30687256,1.880996117,6.841242443,-7.806210926,10.54882333,4.845296382,2.807897597
1.64617E+18,11.31685352,0.166093649,4.810349195,-6.619221156,8.184200339,4.295071217,2.08148274
1.64617E+18,11.32683472,-1.587777141,1.940467712,-5.259022352,5.826127984,3.949949656,1.649274324
1.64617E+18,11.33681567,-2.247100151,0.485324433,-2.79536897,3.619266027,3.888753553,1.588767088
1.64617E+18,11.34679639,-1.418038414,0.136930682,-1.018924383,1.751510735,4.126126824,1.703924064
1.64617E+18,11.35677881,0.492241812,0.128574942,-0.927692207,1.058038916,4.607318082,1.643768064
1.64617E+18,11.36675952,1.951917912,-0.202168001,-0.87384985,2.148131512,5.239929951,1.346521884
1.64617E+18,11.37674048,4.105751896,-0.513629321,-0.536650716,4.172410299,5.855450298,1.190285332
1.64617E+18,11.38672168,5.476986473,-0.914963804,0.519879614,5.577169031,6.326191132,1.351517761
1.64617E+18,11.39670264,5.364043984,-1.415587514,0.466705073,5.567285649,6.72003653,1.622538203
1.64617E+18,11.40668359,4.574595734,-2.097153481,-0.37803018,5.046571675,7.203200573,1.902556728
1.64617E+18,11.41666479,3.149462102,-2.744873293,-2.224343398,4.732984732,7.785878001,2.040122793
1.64617E+18,11.42664575,1.184124444,-3.176591224,-3.961647961,5.214166958,8.405640709,1.958293782
1.64617E+18,11.43662671,0.31238691,-3.879951674,-4.556799673,5.992998735,8.925853309,1.717560818
1.64617E+18,11.44660791,1.281360976,-4.593160734,-4.509935046,6.563423314,9.268827955,1.413120701
1.64617E+18,11.45658862,3.070534695,-5.145394219,-4.315381611,7.384157598,9.407052178,1.192039693
1.64617E+18,11.46656958,4.101118683,-5.859877537,-4.217586131,8.303334991,9.331606219,1.333201374
1.64617E+18,11.47655078,4.314923054,-6.197880827,-4.671069611,8.879818636,9.064967663,1.722104669
1.64617E+18,11.48653174,4.829352878,-6.254113001,-5.301933857,9.515623011,8.803105677,1.918269212
1.64617E+18,11.49651367,5.437749857,-6.62059712,-5.89374532,10.39892608,8.754671614,1.905741136
1.64617E+18,11.50649463,5.485448012,-6.810190302,-6.462261246,10.87334596,9.255994242,2.746338038
1.64617E+18,11.51647559,4.820564007,-7.086589661,-6.783854669,10.93061181,10.28914176,4.526681197
1.64617E+18,11.52645679,3.970377795,-7.1984011,-6.39673985,10.41629296,11.34393417,5.644232571
1.64617E+18,11.53643774,3.26002354,-6.900298443,-5.526866648,9.422745197,11.95331169,5.836853825
1.64617E+18,11.5464187,1.671803916,-6.103025783,-4.805387481,7.945665541,12.00813112,5.815364192
1.64617E+18,11.5563999,-0.095142043,-5.430334027,-3.80201474,6.629698013,11.68840868,6.110334313
1.64617E+18,11.56638062,-2.599368843,-4.193773878,-2.725938583,5.636949431,11.25795608,6.584744542
1.64617E+18,11.57636157,-5.942731177,-1.46338153,-1.321011287,6.26119878,11.04437422,6.79488821
1.64617E+18,11.58634277,-8.36693693,2.678157133,2.094254545,9.031282374,10.74623818,7.058508741
1.64617E+18,11.59632373,-10.29297689,8.402188861,7.809756052,15.41215236,10.03710223,7.535295837
1.64617E+18,11.60630469,-10.32853452,14.19704301,11.89158464,21.20482117,8.693603269,7.653942773
1.64617E+18,11.61628589,-7.412249602,15.58988152,12.78051851,21.47853588,7.158299098,6.432745913
1.64617E+18,11.6262666,-5.460399495,10.70679267,11.31949553,16.51006817,6.109434933,4.608828261
1.64617E+18,11.63624756,-2.827123122,5.214546081,8.014706377,9.970939489,5.776596487,3.913421726
1.64617E+18,11.64622974,-0.751992087,1.803994711,4.32756334,4.748441163,6.025038359,4.237272794
1.64617E+18,11.65621069,0.326078605,-0.805551243,2.156660586,2.325172025,6.409671062,4.278308021
1.64617E+18,11.66619189,1.670564438,-2.401865911,1.923062989,3.501130768,7.547760489,4.545777939
1.64617E+18,11.67617285,2.772405443,-0.867138223,1.522885128,3.279838373,8.717075814,4.848320301
1.64617E+18,11.68615356,1.773201805,0.672246935,0.408828054,1.939922926,9.849295397,4.767725557
1.64617E+18,11.69613477,0.26801673,1.733597232,-0.912129458,1.977162735,10.81918453,3.981826534
1.64617E+18,11.70611572,2.038391788,5.22443853,-1.671383791,5.851779457,11.62130655,2.731442732
1.64617E+18,11.71609668,4.19424208,9.891743528,-2.310739825,10.98989423,12.06976584,2.023863872
1.64617E+18,11.72607764,-0.702641927,12.60324354,-3.797542856,13.1816837,11.89326087,2.181196091
1.64617E+18,11.73605859,-5.760847838,9.838910932,-5.014420399,12.45535821,11.35995987,2.437841596
1.64617E+18,11.74603979,-1.969920601,0.175864516,-8.364121288,8.594768201,10.7797743,2.775164981
1.64617E+18,11.75602075,2.313022383,-7.836582099,-11.00427924,13.70606629,10.48683165,3.123146196
1.64617E+18,11.76600171,2.945963436,-9.979668479,-11.0722077,15.19428402,9.595910984,3.340888142
1.64617E+18,11.77598267,2.942857287,-9.46661082,-10.72111345,14.60203421,8.494183137,3.122499781
1.64617E+18,11.78596362,4.829629649,-6.713328011,-8.189499465,11.63881424,7.393391422,2.684910196
1.64617E+18,11.79594556,8.519442783,-2.186264428,-4.754682252,9.998382909,6.511186531,2.59280667
1.64617E+18,11.80592676,9.711592712,0.549587354,-3.496214223,10.33637234,5.744078075,2.582368917
1.64617E+18,11.81590771,8.366804828,1.658358744,-3.513428685,9.224844599,4.864211968,2.356883613
1.64617E+18,11.82588867,6.786761496,2.756477806,-2.818399717,7.848673675,4.045357464,2.109065508
1.64617E+18,11.83586963,5.055651989,4.051602372,-1.514594708,6.653502532,3.45877483,1.755833565
1.64617E+18,11.84585059,2.95655848,4.811292028,0.454233276,5.665341728,3.060777645,1.401992182
1.64617E+18,11.85583179,0.778765528,4.052804734,2.445027592,4.796859586,2.776970527,1.100959921
1.64617E+18,11.86581274,-0.717657271,2.259620171,3.438962057,4.177005543,2.563891899,0.871748178
1.64617E+18,11.8757937,-1.073135428,0.641435617,3.369661434,3.594117065,2.401397533,0.687997746
1.64617E+18,11.8857749,-1.157200124,-0.677101974,2.477213705,2.816765335,2.23908129,0.568563502
1.64617E+18,11.89575562,-1.004047132,-1.47129771,1.497828428,2.327298347,2.131288794,0.550724473
1.64617E+18,11.90573657,-0.479355369,-1.327594173,0.610137758,1.537711267,2.04752405,0.57758883
1.64617E+18,11.91571777,0.293121361,-0.923563875,-0.367459394,1.036299556,2.028697372,0.596653176
1.64617E+18,11.92569873,1.350295834,-1.075818383,-0.975192063,1.982847345,2.054483611,0.557493469
1.64617E+18,11.93567969,2.198110933,-1.038150039,-1.112797868,2.673530675,2.050774189,0.558080877
1.64617E+18,11.94566162,2.481062782,-0.921835444,-0.993984734,2.82727055,2.009895664,0.524956204
1.64617E+18,11.95564258,2.219193468,-1.059180552,-1.030176576,2.666073305,2.001140071,0.511816136
1.64617E+18,11.96562378,1.852618748,-1.35871821,-1.111174359,2.552061883,2.065909766,0.621165695
1.64617E+18,11.97560474,0.457901552,-1.435142693,-1.270965692,1.970954635,2.177998471,0.779683298
1.64617E+18,11.98558569,0.035271293,-1.407128897,-1.020935869,1.738840374,2.298610924,0.829992885
1.64617E+18,11.99556689,-0.269352436,-1.39167823,-0.457974654,1.489650904,2.342790734,0.810551526
1.64617E+18,12.00554761,-0.144131408,-1.34034961,0.060741177,1.349444489,2.39997556,0.767366542
1.64617E+18,12.01552856,0.20204927,-0.971284827,0.83104575,1.294161953,2.559041695,0.69452278
1.64617E+18,12.02550977,0.105094552,-0.892798734,1.725636336,1.945753122,2.769295213,0.59019483
1.64617E+18,12.03549072,-0.752246939,-0.785268918,1.986592335,2.264745424,2.989427959,0.649521829
1.64617E+18,12.04547168,-1.459392169,-0.80197923,2.17555511,2.739714624,3.296335577,0.908178396
1.64617E+18,12.05545288,-2.210794912,-0.897575447,2.299525481,3.313770249,3.674926853,1.301271116
1.64617E+18,12.06543384,-2.851786438,-1.001565983,2.086799845,3.672948938,4.084627592,1.705305404
1.64617E+18,12.07541479,-2.60110955,-0.787906866,1.645376512,3.17707916,4.531250841,2.082207228
1.64617E+18,12.085396,-1.827042409,0.011050971,1.190368891,2.180638481,5.093053365,2.377946906
1.64617E+18,12.09537769,-1.543425227,1.178113221,0.692579675,2.061499163,5.754252687,2.395395351
1.64617E+18,12.10535889,-1.700882857,2.294102871,0.698793143,2.940105837,6.397646117,2.170651544
1.64617E+18,12.1153396,-1.79710802,2.438832829,1.536244961,3.396697128,6.977602972,1.930914119
1.64617E+18,12.12532056,-2.238410648,2.246752506,2.672058817,4.147080585,7.576298029,1.632975817
1.64617E+18,12.13530176,-3.081229692,2.266692302,3.717227794,5.333821602,8.080991738,1.223782145
1.64617E+18,12.14528271,-3.81641356,2.245110584,4.793566402,6.525627391,8.359903416,0.815679221
1.64617E+18,12.15526367,-3.74986925,2.029144359,6.061408994,7.410777639,8.397772146,0.734381068
1.64617E+18,12.16524487,-2.89120338,1.725136862,7.410203776,8.139181419,8.234968474,1.048443384
1.64617E+18,12.17522583,-1.728941954,1.644115114,8.465311964,8.795104402,7.988940425,1.300436213
1.64617E+18,12.18520679,-0.740207688,2.164714859,8.48978648,8.792631706,7.701573822,1.403930632
1.64617E+18,12.19518774,-1.399239752,3.062709993,7.799636224,8.495433456,7.298237065,1.598442547
1.64617E+18,12.20516846,-2.821067475,4.005198933,7.237531918,8.739674391,6.699510872,2.085111601
1.64617E+18,12.21514941,-3.529848197,4.952048991,7.146343581,9.383647696,6.124889205,2.230416241
1.64617E+18,12.22513062,-2.695449045,5.162713603,7.114134086,9.19401768,5.685192989,1.961892941
1.64617E+18,12.23511157,-2.374231908,4.29691978,6.471601906,8.122938383,5.527441176,1.722192704
1.64617E+18,12.24509277,-2.467507719,2.67798996,5.865947212,6.904314685,5.795945411,2.237990709
1.64617E+18,12.25507471,-2.185655794,0.753964849,5.300428129,5.782740924,6.348425412,2.996733804
1.64617E+18,12.26505566,-2.831924384,-1.244720659,4.762435351,5.678900924,7.035332671,3.528433388
