time,seconds_elapsed,z,y,x,a,ave,std
1.64617E+18,0.032002197,-0.173937932,-1.527378786,0.016947335,1.537344325,1.397472328,0.290925751
1.64617E+18,0.041984131,-0.01004384,-1.493077288,-0.185912265,1.504640834,1.391456101,0.288583687
1.64617E+18,0.051965332,0.280495104,-1.484658127,-0.399842454,1.562933539,1.441838985,0.342828829
1.64617E+18,0.061947266,0.540712559,-1.580514456,-0.497565272,1.74297654,1.523697711,0.444594824
1.64617E+18,0.071928467,0.679205083,-1.516403803,-0.45113984,1.72172216,1.596767058,0.52703116
1.64617E+18,0.081910156,0.743112031,-1.321370768,-0.377120189,1.562195837,1.654499862,0.567615671
1.64617E+18,0.091891113,0.623826311,-1.141796584,-0.477599209,1.385986908,1.686334661,0.570466195
1.64617E+18,0.101873291,0.289383344,-0.881609232,-0.511040437,1.059311043,1.652898675,0.596303793
1.64617E+18,0.111854248,-0.156570033,-0.827287567,-0.122092558,0.85077934,1.588075981,0.685822096
1.64617E+18,0.121836182,-0.806547269,-0.663601272,0.070524246,1.046832754,1.646214871,0.64423746
1.64617E+18,0.131817139,-1.429596165,-0.28283173,0.241511585,1.477182057,1.756214044,0.626160677
1.64617E+18,0.141799316,-1.96317931,0.122173551,0.406141664,2.008469674,1.857850243,0.654466917
1.64617E+18,0.151780273,-2.307175119,0.464956476,0.363867799,2.381520801,1.917721633,0.691826412
1.64617E+18,0.161762451,-2.374046176,0.643312809,0.262862489,2.473670008,1.926015182,0.697807934
1.64617E+18,0.171744141,-2.128775531,0.846562468,0.193076494,2.299050196,1.904036384,0.683527565
1.64617E+18,0.181725342,-1.624430755,0.93284959,0.165715024,1.880543832,1.879359737,0.673197691
1.64617E+18,0.191707275,-0.851364316,0.616952918,-0.021617958,1.051627043,1.88310893,0.673298238
1.64617E+18,0.201688232,0.231079623,0.124610422,-0.316329876,0.411084103,1.966317203,0.614223676
1.64617E+18,0.211670166,1.312353349,-0.114496732,-0.561894171,1.432168242,2.118194001,0.335353744
1.64617E+18,0.221651123,1.989328482,-0.099688747,-0.800930525,2.146824483,2.177640051,0.250406842
1.64617E+18,0.231633301,2.33460147,0.059863225,-0.873964708,2.493544053,2.17886822,0.250282777
1.64617E+18,0.241614258,2.433737552,0.161088972,-0.921074396,2.607183571,2.145375306,0.227285338
1.64617E+18,0.251596191,2.20101133,0.135147598,-1.100376778,2.46445629,2.091052865,0.167463038
1.64617E+18,0.261577148,1.832234717,0.127603174,-1.306375736,2.253882027,2.030057081,0.126396877
1.64617E+18,0.271559326,1.426701613,0.201499308,-1.461433904,2.052283732,1.951378789,0.190966763
1.64617E+18,0.281540283,1.009135541,0.340587461,-1.595151031,1.918035758,1.840304778,0.353679789
1.64617E+18,0.291522461,0.626943566,0.492368214,-1.706715509,1.883709776,1.704804176,0.518910322
1.64617E+18,0.301503418,0.241627321,0.535946075,-1.838125967,1.929852074,1.603887897,0.569926141
1.64617E+18,0.311485107,-0.191036951,0.61101096,-1.922861036,2.026628746,1.537479674,0.566756448
1.64617E+18,0.321466309,-0.601519786,0.756897687,-1.93054896,2.159106169,1.49794065,0.544611722
1.64617E+18,0.331448242,-0.864851574,0.887535699,-1.767464431,2.158614921,1.481009522,0.526111527
1.64617E+18,0.341429443,-1.041416347,0.941582639,-1.512878552,2.063959153,1.481817337,0.527156497
1.64617E+18,0.351411133,-1.116192479,0.803226308,-1.244229223,1.854498452,1.507254452,0.559761924
1.64617E+18,0.361392334,-1.034839307,0.523026387,-0.898849705,1.467099106,1.569315458,0.625378405
1.64617E+18,0.371374268,-0.654053691,0.248813141,-0.629928719,0.941543627,1.691444948,0.707369351
1.64617E+18,0.381355225,-0.010248422,-0.032913551,-0.561973446,0.563029738,1.88771883,0.74344485
1.64617E+18,0.391337402,0.630237931,-0.333792102,-0.506177252,0.874546984,2.120268823,0.650624975
1.64617E+18,0.401318359,1.071251514,-0.412324079,-0.533462587,1.265769838,2.296752036,0.513742926
1.64617E+18,0.411300293,1.444533622,-0.385927071,-0.652167147,1.63123851,2.404129918,0.382482039
1.64617E+18,0.421282227,1.841288961,-0.434042867,-0.616883652,1.989794886,2.44349095,0.315265795
1.64617E+18,0.431263428,2.036582985,-0.471797136,-0.569470013,2.166693076,2.417584356,0.359082616
1.64617E+18,0.441245117,2.202745022,-0.495818647,-0.526054795,2.318330307,2.352559837,0.446790988
1.64617E+18,0.451226318,2.370775192,-0.509249499,-0.496237895,2.475108505,2.264417106,0.524955831
1.64617E+18,0.461208252,2.598912332,-0.584967003,-0.36184338,2.688394007,2.160684422,0.573333833
1.64617E+18,0.471189453,2.794038598,-0.771431824,-0.181928054,2.904282452,2.038459122,0.578069178
1.64617E+18,0.481171387,2.743921107,-0.899559022,-0.072760737,2.88852966,1.884062813,0.530422571
1.64617E+18,0.4911521,2.537971833,-0.698370972,-0.193129759,2.639379121,1.747756728,0.418009995
1.64617E+18,0.501134277,2.265106494,-0.457567827,-0.365256331,2.33954866,1.667689397,0.299415602
1.64617E+18,0.511115234,1.925661188,-0.453870141,-0.431095853,2.024848822,1.636589677,0.237834324
1.64617E+18,0.521097412,1.564748732,-0.478072855,-0.564296409,1.730728947,1.648343195,0.258718563
1.64617E+18,0.531078613,1.219105157,-0.546282175,-0.717615917,1.51644789,1.707361178,0.328645519
1.64617E+18,0.541060547,0.986508115,-0.774348588,-0.701338882,1.436902997,1.805768295,0.396974899
1.64617E+18,0.551041504,0.756423348,-1.021526821,-0.671954455,1.437781665,1.910593075,0.423262015
1.64617E+18,0.561023682,0.55636547,-1.15182055,-0.71647493,1.466141003,2.035063291,0.448201259
1.64617E+18,0.571004639,0.184330147,-1.109257711,-0.765531514,1.360319364,2.201923053,0.51147191
1.64617E+18,0.580986572,-0.351858212,-1.188456628,-0.889281593,1.525468816,2.423481994,0.574864462
1.64617E+18,0.590967529,-0.543677838,-1.402438694,-1.057553389,1.838705809,2.666206265,0.651740446
1.64617E+18,0.600949707,-0.556291236,-1.518716756,-1.224361251,2.028551453,2.891402036,0.713081074
1.64617E+18,0.610931641,-0.674403821,-1.569879081,-1.292466015,2.142384009,3.081175424,0.710716478
1.64617E+18,0.620912598,-0.870329713,-1.670659715,-1.355743286,2.320908776,3.225395541,0.649251627
1.64617E+18,0.630894531,-1.032675992,-1.745031065,-1.463230139,2.500519058,3.325152143,0.575006991
1.64617E+18,0.640875488,-1.216345044,-1.690850854,-1.355545133,2.485150797,3.378847168,0.517710395
1.64617E+18,0.650857666,-1.591155677,-1.781664805,-1.220497269,2.682483821,3.38469116,0.507824689
1.64617E+18,0.660838623,-2.25930979,-1.853333034,-1.134575766,3.134738623,3.349622995,0.564095866
1.64617E+18,0.670820557,-2.891161586,-1.77725488,-1.126797825,3.575908775,3.267949631,0.642914964
1.64617E+18,0.680801514,-3.382961938,-1.679302163,-1.165950782,3.952711532,3.144308303,0.689036499
1.64617E+18,0.690783691,-3.578718903,-1.497468217,-1.297647071,4.090663512,2.970548239,0.682325393
1.64617E+18,0.700764648,-3.416473162,-1.393701845,-1.342021927,3.926285338,2.760837269,0.62575973
1.64617E+18,0.710746582,-3.103020376,-1.383757374,-1.142685861,3.584585178,2.538825867,0.563641096
1.64617E+18,0.720727539,-2.835581153,-1.494168298,-0.859776462,3.318474792,2.343525849,0.502490332
1.64617E+18,0.730709717,-2.602969498,-1.466131121,-0.548843477,3.037469315,2.186646443,0.409997614
1.64617E+18,0.740690674,-2.226350939,-1.21498983,-0.192392677,2.543590716,2.078082562,0.299058229
1.64617E+18,0.750672607,-2.174739994,-0.826020616,0.159678612,2.33180217,2.062041438,0.277159042
1.64617E+18,0.760654541,-2.21230254,-0.410604416,0.557017577,2.318004982,2.120420942,0.372810446
1.64617E+18,0.770635498,-2.170171955,0.075446578,0.87057492,2.3394955,2.218136023,0.513357229
1.64617E+18,0.780617676,-1.822603549,0.607389847,1.102683155,2.215110893,2.321770765,0.620766621
1.64617E+18,0.790598633,-1.323155314,0.897116013,1.191091799,1.993553811,2.433928943,0.688941765
1.64617E+18,0.800580566,-0.684351799,0.932720118,1.254079878,1.706171311,2.562966436,0.71473563
1.64617E+18,0.810561523,-0.13348025,0.881561885,1.36641914,1.631584996,2.708467971,0.672349075
1.64617E+18,0.820543701,0.078650927,0.890958075,1.503792013,1.749680736,2.851170391,0.572696684
1.64617E+18,0.830524658,0.050614919,1.089348604,1.618764984,1.951830506,2.974352345,0.43952058
1.64617E+18,0.840506836,-0.259857389,1.500521175,1.833154316,2.383179474,3.062812089,0.287576837
1.64617E+18,0.850487305,-0.770568193,1.936440941,2.038903683,2.915597209,3.099115554,0.212640245
1.64617E+18,0.860469482,-1.198760288,2.127071649,2.212824372,3.295155797,3.074139339,0.24494359
1.64617E+18,0.87045166,-1.289133217,2.001560771,2.393366963,3.375842916,3.011442567,0.260117843
1.64617E+18,0.880432617,-1.151997952,1.893773181,2.494001174,3.336692674,2.952488721,0.236591826
1.64617E+18,0.890414551,-0.930955739,1.864314447,2.538078216,3.283928741,2.893101771,0.205142825
1.64617E+18,0.900395508,-0.622144057,1.9261668,2.428151422,3.16118666,2.848745413,0.158491751
1.64617E+18,0.910377686,-0.254968448,1.966096659,2.329065317,3.058609199,2.830294468,0.129049986
1.64617E+18,0.920358643,0.159348266,1.904571054,2.288353368,2.981500278,2.838212561,0.144339181
1.64617E+18,0.930340576,0.448349917,1.827520548,2.122374724,2.836427942,2.868909895,0.195222535
1.64617E+18,0.940321289,0.619515462,1.814801351,1.965804837,2.746214123,2.924516388,0.249656087
1.64617E+18,0.950303711,0.845384072,1.874177669,1.696897295,2.665835065,2.9919512,0.281438602
1.64617E+18,0.960285645,1.006786933,1.953337131,1.5133016,2.668188075,3.078062028,0.299631605
1.64617E+18,0.970266602,1.319888421,1.96395614,1.471143543,2.78630445,3.18095073,0.317350067
1.64617E+18,0.980248535,1.660814905,1.688847405,1.382955995,2.742823179,3.293307583,0.354464665
1.64617E+18,0.990229492,2.122248759,1.509797829,1.133245321,2.840365159,3.418815508,0.359492756
1.64617E+18,1.00021167,2.566961196,1.281625618,0.792939599,2.976677211,3.525861886,0.329428832
1.64617E+18,1.010192627,2.918054854,1.000634255,0.573945843,3.137790126,3.592478592,0.274396933
1.64617E+18,1.020174561,3.173626529,0.722081518,0.469842202,3.288473621,3.597434658,0.266472904
1.64617E+18,1.030155273,3.318875542,0.582946019,0.392742888,3.392492874,3.539504382,0.370145183
1.64617E+18,1.040137695,3.370206501,0.530301055,0.246444658,3.42056224,3.440661231,0.503983467
1.64617E+18,1.050119629,3.482874849,0.552298951,0.062273939,3.526943349,3.315652138,0.632194518
1.64617E+18,1.06010083,3.652056526,0.574292757,0.032174131,3.697075089,3.159189115,0.744229455
1.64617E+18,1.07008252,3.870903275,0.54162792,0.099265992,3.909872979,2.97073306,0.819013373
1.64617E+18,1.080063477,3.96737686,0.478200281,0.120288029,3.997902433,2.74954681,0.834052425
1.64617E+18,1.090045654,3.893360022,0.357188467,0.093525987,3.910828937,2.518948099,0.773619379
1.64617E+18,1.100026611,3.632456338,0.272414089,0.036958442,3.642844275,2.302947847,0.645831788
1.64617E+18,1.110008545,3.164449535,0.365987275,0.107319388,3.18735078,2.128797362,0.472617177
1.64617E+18,1.119989258,2.644727158,0.553330633,0.197104654,2.709170864,2.018831918,0.315261784
1.64617E+18,1.12997168,2.301256834,0.626748336,0.301520356,2.404061359,1.967868452,0.22891338
1.64617E+18,1.139953613,2.065731922,0.502435727,0.43732788,2.17047131,1.949266997,0.198211547
1.64617E+18,1.149934814,1.883803576,0.165565241,0.523970463,1.962313127,1.973792394,0.2356937
1.64617E+18,1.159916504,1.737865411,-0.187251003,0.479551695,1.812514539,2.070663903,0.37119307
1.64617E+18,1.169897705,1.585028719,-0.530242018,0.299611308,1.698010475,2.240011556,0.555389922
1.64617E+18,1.179879639,1.397256907,-0.949030909,0.097933209,1.691915318,2.470030099,0.731637984
1.64617E+18,1.189860596,1.052702881,-1.398919287,-0.015317469,1.75082642,2.729034846,0.857889518
1.64617E+18,1.199842529,0.755879158,-1.744204551,0.038584948,1.901339427,3.009901996,0.946814874
1.64617E+18,1.209823242,0.388095647,-2.04823426,0.112223819,2.087696338,3.294082137,0.996604558
1.64617E+18,1.219805664,-0.17269407,-2.190668216,0.095441319,2.199536205,3.542470034,0.974261929
1.64617E+18,1.229787598,-0.793283298,-2.07098619,-0.03807203,2.218046814,3.740837555,0.877806618
1.64617E+18,1.239768799,-1.461952374,-1.910862263,-0.21686237,2.415725279,3.907330856,0.716209269
1.64617E+18,1.249750488,-2.123730522,-1.995489927,-0.31418943,2.931028212,4.056988223,0.517756833
1.64617E+18,1.259731689,-2.754534855,-2.141241045,-0.345829307,3.505991071,4.20456053,0.36297297
1.64617E+18,1.269713623,-3.29553266,-2.231122683,-0.38357079,3.998195905,4.343719496,0.334083718
1.64617E+18,1.279694824,-3.521588318,-2.383756839,-0.501322615,4.281962787,4.436642466,0.353708749
1.64617E+18,1.289676514,-3.455512795,-2.929405392,-0.516755929,4.559497924,4.482958733,0.360677525
1.64617E+18,1.299658691,-3.233844558,-3.454856669,-0.321869207,4.743140839,4.423701981,0.390665602
1.64617E+18,1.309639648,-2.968459345,-3.476398638,-0.046929582,4.571575305,4.25855666,0.54089624
1.64617E+18,1.319621582,-2.930484127,-2.979076601,0.191371809,4.18321142,4.0371819,0.771388971
1.64617E+18,1.329602539,-3.126762486,-2.279509698,0.323611155,3.882979821,3.807743596,1.000904009
1.64617E+18,1.339584473,-3.627620589,-1.447558815,0.225888082,3.912298951,3.608102808,1.153462783
1.64617E+18,1.349565674,-4.382852681,-0.444272292,-0.112611503,4.40675128,3.424206644,1.234080863
1.64617E+18,1.359547607,-4.855775898,0.428768726,-0.473175292,4.897580734,3.177529809,1.259308828
1.64617E+18,1.369529541,-4.761114331,0.883495776,-0.911454116,4.927425602,2.868604966,1.175600624
1.64617E+18,1.379510498,-4.351038908,1.447900468,-1.219942703,4.745125451,2.556702582,0.986550846
1.64617E+18,1.389492676,-3.176135881,1.761133766,-1.595965416,3.966930411,2.262981304,0.681292559
1.64617E+18,1.399473633,-1.716938358,1.712060523,-1.918203274,3.091687623,2.050598171,0.382542557
1.64617E+18,1.409455566,-0.452895159,1.457586288,-1.797130962,2.35782771,1.932815417,0.161087047
1.64617E+18,1.4194375,0.336015915,1.132171262,-1.474094355,1.888828375,1.894800194,0.081495872
1.64617E+18,1.429418457,0.999185225,0.932920025,-1.300170306,1.886571947,1.919832938,0.109463873
1.64617E+18,1.439400635,1.421259714,0.802305393,-1.278692487,2.073337309,1.970128828,0.177210739
1.64617E+18,1.449381592,1.380752347,0.702238169,-1.16786911,1.939982924,2.009920258,0.232093718
1.64617E+18,1.459363525,1.064480997,0.858114374,-1.183463423,1.80833231,2.054829501,0.256393036
1.64617E+18,1.469344482,1.068280389,0.889150149,-1.156938185,1.808401764,2.104145284,0.251621548
1.64617E+18,1.47932666,1.13512865,1.03167529,-0.956910264,1.807912667,2.162628603,0.243934347
1.64617E+18,1.489308594,0.855783301,1.488498436,-0.670090707,1.843099077,2.246481216,0.251590135
1.64617E+18,1.499289551,0.292636792,1.862253423,-0.330509171,1.913860082,2.357012422,0.289964298
1.64617E+18,1.509271484,-0.158414784,1.970614429,0.052762088,1.977675481,2.490675705,0.355535878
1.64617E+18,1.519252686,-0.673210227,1.995436735,0.375510087,2.139155815,2.646174537,0.429514691
1.64617E+18,1.529235107,-1.026039915,2.039697025,0.704794867,2.389530846,2.799581502,0.49063809
1.64617E+18,1.539217041,-0.985146179,2.069875013,0.923140827,2.471251616,2.94758424,0.562576029
1.64617E+18,1.549197998,-0.647819765,2.033229583,1.074238347,2.389075346,3.094214457,0.608527782
1.64617E+18,1.559180176,-0.024080548,1.953953801,1.215870705,2.301490148,3.253620156,0.611711753
1.64617E+18,1.569161133,0.749956782,1.844210693,1.328166128,2.393234949,3.418126189,0.551805329
1.64617E+18,1.579143066,1.478117327,1.742078937,1.33565283,2.646438803,3.571754153,0.449443183
1.64617E+18,1.589124023,2.024663414,1.844423752,1.091772543,2.948411132,3.709315111,0.343120675
1.64617E+18,1.599105957,2.512860773,1.884494481,0.836609522,3.250492917,3.825349054,0.24965036
1.64617E+18,1.609088135,3.001606997,1.76761173,0.587892608,3.532663799,3.918213088,0.182131662
1.64617E+18,1.619069092,3.315679376,1.559113941,0.260805119,3.673225465,3.973038716,0.133972474
1.64617E+18,1.629051025,3.61522288,1.375524383,-0.107596561,3.86955822,3.972064253,0.136167116
1.64617E+18,1.639031982,3.736320617,1.195859306,-0.337873636,3.937553787,3.897382406,0.28991131
1.64617E+18,1.64901416,3.85144045,0.926692821,-0.415920788,3.983132339,3.74618613,0.526919223
1.64617E+18,1.65899585,3.894581088,0.531388265,-0.353730582,3.946550477,3.536806418,0.756953885
1.64617E+18,1.668977051,3.926211321,0.103180973,-0.123706313,3.929514589,3.298891583,0.942041411
1.64617E+18,1.678958984,4.000076768,-0.343259311,0.24172742,4.02204839,3.05544964,1.05535665
1.64617E+18,1.688940186,4.001831503,-0.80276775,0.471953057,4.108750555,2.825807473,1.069791437
1.64617E+18,1.698922119,3.955845996,-1.162369124,0.682154873,4.179133259,2.642989377,0.988010831
1.64617E+18,1.708902832,3.699284726,-1.482421747,0.878423003,4.080920079,2.506280868,0.851093691
1.64617E+18,1.71888501,3.115664754,-1.684363538,0.936292935,3.663480837,2.414260923,0.714683899
1.64617E+18,1.728867188,2.556449155,-1.638529423,0.728898212,3.122739751,2.383639231,0.665361416
1.64617E+18,1.738848145,1.960179544,-1.412411806,0.215129847,2.425591022,2.425658928,0.721602569
1.64617E+18,1.748829834,1.387232941,-1.264739365,-0.213557191,1.889335219,2.551194708,0.813957189
1.64617E+18,1.758812012,0.852064573,-1.178758533,-0.584177825,1.567402133,2.751332738,0.870687589
1.64617E+18,1.768792969,0.195871532,-1.100678684,-0.992698494,1.495095154,3.012888322,0.86860317
1.64617E+18,1.778775146,-0.816718534,-0.828296744,-1.274630498,1.725626717,3.305587991,0.798131705
1.64617E+18,1.788756104,-1.626227575,-0.69787822,-1.438522691,2.280569593,3.589376567,0.681973534
1.64617E+18,1.798738037,-2.158162953,-0.917439547,-1.551854471,2.812048178,3.828055518,0.594161027
1.64617E+18,1.808718994,-2.543936879,-1.209845161,-1.433462485,3.160720623,4.044284389,0.578309092
1.64617E+18,1.818701172,-2.692632234,-1.681530068,-1.09243276,3.357263923,4.285265934,0.656692645
1.64617E+18,1.828682861,-2.80046074,-1.937739749,-0.977233287,3.542936718,4.576715598,0.80919691
1.64617E+18,1.838664063,-2.934211039,-1.995595433,-0.97846239,3.680948818,4.887647456,0.939168593
1.64617E+18,1.848645996,-3.032239451,-2.2178441,-1.012106082,3.89071552,5.160396698,0.945153275
1.64617E+18,1.858626953,-3.134600925,-2.613535316,-0.916977409,4.182957969,5.317777482,0.84651419
1.64617E+18,1.868609131,-3.316806919,-2.826034742,-0.753137312,4.422091848,5.304960779,0.864380689
1.64617E+18,1.87859082,-3.579763444,-2.741501478,-0.703640144,4.563512476,5.129995549,1.153955022
1.64617E+18,1.888572021,-3.958358856,-2.362208147,-0.731853043,4.667359108,4.812138141,1.612772106
1.64617E+18,1.898553955,-4.509279505,-1.973496122,-0.718149585,4.974336883,4.409680425,2.043359649
1.64617E+18,1.908535889,-5.3503387,-1.400942025,-0.664913085,5.570536076,4.013460554,2.267327527
1.64617E+18,1.918516846,-6.19503479,-0.643363078,-0.7366196,6.271760561,3.606691974,2.31585436
1.64617E+18,1.928499023,-6.585810469,-0.049690206,-0.936553193,6.652255297,3.156594044,2.188010747
1.64617E+18,1.93847998,-6.30786505,0.371681688,-1.068087277,6.408441246,2.679277136,1.871041812
1.64617E+18,1.948462158,-5.33664569,0.627884354,-0.993473497,5.464523362,2.233704128,1.401565365
1.64617E+18,1.958443848,-3.946666665,0.559524519,-0.743023622,4.054790938,1.888557716,0.897946853
1.64617E+18,1.968425049,-2.616365571,0.397344537,-0.372399846,2.672439546,1.696701577,0.553513568
1.64617E+18,1.978406982,-1.328619424,0.389592607,0.032285774,1.384938391,1.662940479,0.50075104
1.64617E+18,1.988387939,-0.174302674,0.558510081,0.266183597,0.642781954,1.777253388,0.552087059
1.64617E+18,1.998369873,0.562535683,0.779500564,0.316790406,1.012138175,1.977610373,0.459878093
1.64617E+18,2.008352051,1.086783429,0.962811889,0.387883977,1.502850271,2.15378636,0.388128371
1.64617E+18,2.018333008,1.333304367,1.078540794,0.441265804,1.770781265,2.312255446,0.412733811
1.64617E+18,2.028314941,1.316854752,1.249553486,0.485257286,1.879086211,2.469197366,0.471238899
1.64617E+18,2.038295898,1.194527765,1.43854578,0.56282356,1.952711167,2.635638678,0.524359365
1.64617E+18,2.048277832,1.139960893,1.525041576,0.653563204,2.013059241,2.803560348,0.547151965
1.64617E+18,2.05826001,1.20550041,1.542596522,0.854775658,2.13622955,2.964289888,0.527036411
1.64617E+18,2.068240967,1.350498663,1.555540759,1.09903172,2.334828562,3.117183892,0.48471192
1.64617E+18,2.0782229,1.451750714,1.603461909,1.308608025,2.528067482,3.26024591,0.441922674
1.64617E+18,2.088204834,1.491407017,1.676794564,1.402584386,2.646351802,3.399015262,0.406694228
1.64617E+18,2.098186035,1.681718576,1.764594136,1.323835551,2.773898052,3.531762501,0.352375749
1.64617E+18,2.108167969,2.004460584,1.989087659,1.248430328,3.08754113,3.644149396,0.259803639
1.64617E+18,2.118148926,2.308291555,2.136312356,1.12467718,3.340200465,3.709174904,0.182113456
1.64617E+18,2.128130859,2.634292273,2.171610464,0.949210065,3.543499334,3.753964317,0.13478812
1.64617E+18,2.138113037,2.886308301,2.086626826,0.711416112,3.631927863,3.774016259,0.115525311
1.64617E+18,2.148093994,3.096860684,1.768527676,0.623483342,3.62035464,3.780247537,0.109200607
1.64617E+18,2.158075928,3.343926397,1.361066819,0.631760611,3.665169587,3.773970041,0.119527774
1.64617E+18,2.168058105,3.497013264,1.249651102,0.622795799,3.765448745,3.740261994,0.178459751
1.64617E+18,2.178038818,3.653343644,1.292099666,0.562799157,3.915761001,3.663938817,0.283602297
1.64617E+18,2.18802124,3.734641871,1.299105745,0.395035529,3.973824192,3.526999455,0.424538603
1.64617E+18,2.198001953,3.704246732,1.175764612,0.297861249,3.897767002,3.326008329,0.603485131
1.64617E+18,2.207983887,3.609405133,0.913847368,0.328934725,3.737796206,3.084729603,0.782449174
1.64617E+18,2.217966064,3.700377782,0.751245068,0.304131196,3.788094596,2.823926812,0.940077862
1.64617E+18,2.227947021,3.652850307,0.728549837,0.378914561,3.74401876,2.527386062,1.050401856
1.64617E+18,2.237928711,3.601639175,0.729049603,0.379599548,3.694240638,2.203073681,1.122859141
1.64617E+18,2.247911133,3.467902905,0.667030077,0.430224989,3.557579686,1.875921275,1.117315176
1.64617E+18,2.25789209,3.247556857,0.532682397,0.495783284,3.328089113,1.582615022,1.017923559
1.64617E+18,2.267874268,2.942605942,0.27851942,0.52612165,3.002216979,1.361872419,0.839114446
1.64617E+18,2.277855225,2.517092127,0.117791098,0.366550535,2.546367376,1.225814629,0.651425547
1.64617E+18,2.287837158,1.949705496,0.229484463,-0.054216159,1.963912939,1.170720122,0.553320414
1.64617E+18,2.297819092,1.418358147,0.277190801,-0.341453138,1.484979737,1.205757452,0.610569183
1.64617E+18,2.307800293,1.0046809,0.144969612,-0.495960174,1.129768292,1.324550513,0.752422879
1.64617E+18,2.317781982,0.656681701,-0.036299394,-0.494232291,0.822687098,1.539235618,0.947266466
1.64617E+18,2.32776416,0.260486919,-0.199293907,-0.378581895,0.500894947,1.865076146,1.177243011
1.64617E+18,2.337745117,-0.020815994,-0.266709739,-0.327294849,0.422716582,2.326576815,1.429547424
1.64617E+18,2.347727051,-0.321545492,-0.452030943,-0.286876621,0.624517152,2.867705759,1.618185062
1.64617E+18,2.357708252,-0.694530078,-0.858242969,-0.192178888,1.120663084,3.373158355,1.627947427
1.64617E+18,2.367689941,-0.996985669,-1.302903384,-0.058662032,1.641639085,3.746186217,1.490662238
1.64617E+18,2.377672119,-1.137692363,-1.637102897,0.085207765,1.995422305,3.957934025,1.31694405
1.64617E+18,2.387653076,-1.340817227,-1.885648327,0.049601797,2.314286237,4.039647274,1.213964048
1.64617E+18,2.39763501,-1.854789663,-1.923953508,0.051067778,2.672910345,4.030316556,1.227473007
1.64617E+18,2.407616943,-2.687188581,-1.870896748,0.122463254,3.276619349,3.949945042,1.335297641
1.64617E+18,2.417598145,-3.678774437,-1.758933918,0.167586097,4.081092377,3.789420272,1.493688224
1.64617E+18,2.427580078,-4.854083122,-1.612130369,0.106593631,5.11590163,3.534754064,1.632862625
1.64617E+18,2.437562012,-5.510198422,-1.916439186,0.02450608,5.83400603,3.150216713,1.667645204
1.64617E+18,2.447542969,-5.155440981,-2.381716565,0.019624665,5.679043109,2.665450258,1.514597341
1.64617E+18,2.457525146,-4.157747456,-2.494565822,-0.148029876,4.850941702,2.198612991,1.200717913
1.64617E+18,2.46750708,-3.012307255,-2.222870988,-0.340310836,3.759117169,1.845609324,0.831062143
1.64617E+18,2.477488037,-2.089054346,-1.79821262,-0.559238541,2.812554787,1.63971113,0.533137189
1.64617E+18,2.487469971,-1.512044147,-1.430276256,-0.77510021,2.220979065,1.557559682,0.390222241
1.64617E+18,2.497450928,-1.313318979,-1.081258528,-0.77457341,1.869195205,1.556826184,0.388979441
1.64617E+18,2.507433105,-1.378105632,-0.629954438,-0.705312315,1.671371649,1.59379131,0.432083684
1.64617E+18,2.517415039,-1.318970721,-0.336151817,-0.708374552,1.53443029,1.644897133,0.467046219
1.64617E+18,2.527395264,-1.008088078,-0.192523098,-0.748955934,1.270528122,1.712749242,0.494546795
1.64617E+18,2.537377441,-0.580674567,-0.008076631,-0.797258631,0.986341477,1.81633545,0.499531217
1.64617E+18,2.547359375,-0.328867213,0.18069822,-0.938429143,1.010670445,1.961177934,0.444869381
1.64617E+18,2.557340576,-0.429084075,0.332236105,-1.204282412,1.320905031,2.08357548,0.316322037
1.64617E+18,2.567322266,-0.840524942,0.499604888,-1.39081723,1.700135226,2.121093431,0.235585094
1.64617E+18,2.577304443,-1.191103635,0.656978931,-1.45392309,1.991040315,2.121381261,0.235071803
1.64617E+18,2.5872854,-1.435472948,0.807619866,-1.478981981,2.213644085,2.153405046,0.236939733
1.64617E+18,2.597267578,-1.510870427,0.96181791,-1.343357851,2.238846457,2.211634769,0.306059059
1.64617E+18,2.607249268,-1.514808351,1.125344923,-1.096336928,2.182429883,2.317489343,0.447526345
1.64617E+18,2.617230225,-1.480817234,1.376405842,-0.899911708,2.212951379,2.482775673,0.633647379
1.64617E+18,2.627212402,-1.477434606,1.631766505,-0.688448128,2.306390202,2.673817371,0.791761323
1.64617E+18,2.637193359,-1.431776432,1.902712274,-0.507729523,2.434766317,2.863592952,0.900867096
1.64617E+18,2.647175293,-1.050548333,1.953117351,-0.274450636,2.234645908,3.030980095,0.959253614
1.64617E+18,2.657157227,-0.362898077,1.648775507,0.1629327,1.696084536,3.193691093,0.94831253
1.64617E+18,2.667138428,0.408784799,1.55836926,0.55193779,1.703013531,3.390851209,0.811547344
1.64617E+18,2.677120361,1.117217731,1.899014589,0.698265612,2.31127816,3.580177447,0.584897423
1.64617E+18,2.687102295,1.877022537,1.931381904,0.750891579,2.795941313,3.688961073,0.415378093
1.64617E+18,2.697083252,2.689317994,1.716974014,0.832084299,3.2973922,3.70634305,0.379754209
1.64617E+18,2.70706543,3.321248117,1.633804148,1.004723205,3.835293178,3.636174314,0.495900446
1.64617E+18,2.717047119,3.652342942,1.519129137,1.163960631,4.123368362,3.472026782,0.650420804
1.64617E+18,2.72702832,3.806428757,1.352497728,1.164771947,4.204146011,3.237690804,0.782305468
1.64617E+18,2.737010254,3.793174724,1.192831482,1.034351377,4.108637755,2.961727896,0.874065219
1.64617E+18,2.746992432,3.613221477,1.137183829,0.75140004,3.861755886,2.677760914,0.915617914
1.64617E+18,2.756973389,3.449121048,1.184207446,0.391324765,3.667685694,2.41891071,0.910182584
1.64617E+18,2.766955322,3.383110991,1.182908054,0.297470935,3.596275907,2.190111783,0.853308928
1.64617E+18,2.776936279,3.191397163,1.139605503,0.265070375,3.399114423,1.988088682,0.72615484
1.64617E+18,2.786918213,2.783739907,1.0276719,0.119010556,2.969761087,1.822757173,0.553838779
1.64617E+18,2.796900146,2.424931729,0.925533129,-0.027895065,2.595704837,1.724138119,0.409921909
1.64617E+18,2.806881104,2.019286398,0.829222626,-0.218424067,2.193817858,1.677908128,0.32662798
1.64617E+18,2.816863281,1.604716001,0.695721919,-0.330587534,1.780008581,1.671540419,0.316986499
1.64617E+18,2.826845215,1.33091075,0.456606873,-0.326827012,1.444516929,1.704577772,0.342739905
1.64617E+18,2.836826416,1.213451661,0.175803142,-0.326967809,1.268967937,1.773549213,0.352718922
1.64617E+18,2.846808105,1.219791385,-0.15308979,-0.331433045,1.273253852,1.885869532,0.352992726
1.64617E+18,2.856790283,1.242896951,-0.489150714,-0.345689095,1.379696417,2.076441038,0.466869541
1.64617E+18,2.86677124,1.262303078,-0.874814749,-0.353846902,1.576044903,2.35727871,0.732428206
1.64617E+18,2.876753174,1.273880118,-1.135638353,-0.367927011,1.745799333,2.702563848,1.034384197
1.64617E+18,2.886735352,1.302170393,-1.454055484,-0.353025502,1.98357054,3.064299797,1.247170597
1.64617E+18,2.896716309,1.189844575,-1.725762301,-0.396775724,2.133404933,3.384288431,1.336161246
1.64617E+18,2.906698486,0.762599991,-1.932352795,-0.471119529,2.130140765,3.64300628,1.3192761
1.64617E+18,2.91668042,0.092897479,-2.044148452,-0.51627494,2.110382109,3.862810751,1.228920774
1.64617E+18,2.926661133,-0.709004009,-1.962664347,-0.447443177,2.134231342,4.058040141,1.081214943
1.64617E+18,2.936643555,-1.670633703,-1.69111535,-0.26757169,2.392171129,4.21424896,0.887470961
1.64617E+18,2.946625488,-2.794538364,-1.510884455,-0.11673399,3.17896891,4.30507587,0.728603499
1.64617E+18,2.956606445,-3.850696938,-1.646694609,-0.022058468,4.18807314,4.266665023,0.794135404
1.64617E+18,2.966588379,-4.580488884,-2.06808813,0.178691995,5.028896277,4.058933086,1.025512626
1.64617E+18,2.976570557,-4.805132921,-2.366056931,0.275580791,5.363158823,3.694272425,1.241393527
1.64617E+18,2.986551514,-4.614368357,-2.343428335,0.290126782,5.183456882,3.22828413,1.392839063
1.64617E+18,2.996533203,-4.236246408,-2.064509103,0.275547491,4.720583426,2.758440443,1.445519739
1.64617E+18,3.006514404,-3.97275563,-1.713225475,0.123534171,4.328185476,2.370696649,1.386007589
1.64617E+18,3.016496338,-3.824798527,-1.360795016,0.156491032,4.062676001,2.054419469,1.258205165
1.64617E+18,3.026478516,-3.539719603,-1.046514547,0.194860382,3.696319538,1.782054089,1.075531139
1.64617E+18,3.036459473,-3.111404174,-1.023347022,0.405993342,3.300440221,1.564110035,0.865943521
1.64617E+18,3.046441406,-2.719003523,-0.535034513,0.363321929,2.794860446,1.411161165,0.655178536
1.64617E+18,3.05642334,-2.109559958,-0.015464111,0.069275781,2.110753773,1.328647755,0.512042564
1.64617E+18,3.066404541,-1.335118723,0.345981429,-0.092084556,1.382289666,1.326828943,0.50928612
1.64617E+18,3.07638623,-0.507465538,0.474457002,-0.109390276,0.703275872,1.413774791,0.58056243
1.64617E+18,3.086368408,0.163739779,0.456266681,-0.01595036,0.485020014,1.585525912,0.598732655
1.64617E+18,3.096349365,0.589329582,0.577969399,0.171861345,0.843145483,1.786275861,0.528519314
1.64617E+18,3.106331543,0.679514296,0.858708249,0.398835177,1.165413674,1.949487818,0.459582029
1.64617E+18,3.116313232,0.518725768,1.07188572,0.61234389,1.339022202,2.075169531,0.395336711
1.64617E+18,3.126294434,0.363135978,1.213114392,0.835109346,1.516878995,2.179286507,0.31711725
1.64617E+18,3.136276367,0.177193719,1.468885389,0.973266356,1.770951523,2.276617955,0.238490843
1.64617E+18,3.146258301,0.087438629,1.655629611,1.063516316,1.969726346,2.370819552,0.203652102
1.64617E+18,3.156239258,0.034389176,1.783824614,1.093443253,2.092565654,2.467684554,0.219581075
1.64617E+18,3.166221436,0.027094343,1.984216253,1.064199915,2.251748143,2.580794277,0.280180199
1.64617E+18,3.176203369,0.073866616,2.204070133,0.998413072,2.420787081,2.713130048,0.386039638
1.64617E+18,3.186184326,0.123488433,2.3276819,0.882780321,2.492519512,2.860807604,0.508880692
1.64617E+18,3.19616626,0.228631061,2.361577155,0.705420598,2.475265045,3.027038821,0.620655266
1.64617E+18,3.206148438,0.516103018,2.310253211,0.513390544,2.422230805,3.208978049,0.694515165
1.64617E+18,3.216129395,0.941464858,2.162994027,0.316882578,2.380191968,3.393831409,0.706415213
1.64617E+18,3.226111328,1.498396145,1.981298904,0.174147045,2.490193476,3.57289918,0.651605358
1.64617E+18,3.236093262,2.048292127,1.771758328,0.159888583,2.712967484,3.724637193,0.550666995
1.64617E+18,3.246074219,2.471770638,1.585707933,0.099679249,2.938376369,3.826164534,0.436554781
1.64617E+18,3.256056396,2.826945427,1.549201619,-0.018876112,3.223662887,3.87359074,0.35582922
1.64617E+18,3.266038086,3.251608179,1.477163972,-0.162519809,3.57510585,3.853167118,0.396126639
1.64617E+18,3.276019287,3.648991294,1.344247786,-0.262402398,3.897562647,3.747542089,0.562198001
1.64617E+18,3.286001221,3.953474591,1.235565878,-0.325640725,4.154831677,3.540987694,0.798795496
1.64617E+18,3.295982422,4.116359215,1.143750348,-0.437611154,4.294657328,3.246984547,1.027166382
1.64617E+18,3.305964355,4.117273407,1.012103744,-0.512966181,4.270764404,2.921786345,1.151283198
1.64617E+18,3.315946289,4.056945487,0.874763311,-0.414893126,4.170869674,2.603286012,1.174365887
1.64617E+18,3.325927246,3.920107159,0.74735566,-0.36724049,4.007573605,2.295795982,1.125190477
1.64617E+18,3.335909424,3.665112992,0.537822098,-0.421277055,3.7282409,2.004569059,1.016041453
1.64617E+18,3.345891113,3.371308325,0.343494873,-0.402979474,3.412638423,1.767103449,0.849249026
1.64617E+18,3.35587207,2.988967296,0.230069569,-0.360665934,3.019426671,1.599965053,0.650059188
1.64617E+18,3.365854248,2.508862059,0.074948566,-0.211251618,2.518855566,1.510124281,0.490069558
1.64617E+18,3.375836426,1.831204205,0.025183541,-0.048471185,1.832018697,1.507408649,0.484516107
1.64617E+18,3.385817383,1.205920096,0.083523502,0.12049927,1.214800201,1.60000945,0.609957649
1.64617E+18,3.395799072,0.943605377,-0.115935241,0.428181866,1.042675308,1.750297968,0.677896029
1.64617E+18,3.405781494,0.733793583,-0.397830274,0.694373938,1.085761076,1.901870705,0.672160004
1.64617E+18,3.415762207,0.482293687,-0.572335777,0.800608161,1.095969375,2.061723556,0.648737678
1.64617E+18,3.425744141,0.132730893,-0.644289253,0.875765693,1.095304378,2.266997321,0.635301857
1.64617E+18,3.435726318,-0.275297535,-0.816716196,1.043732588,1.353584794,2.54117046,0.661553608
1.64617E+18,3.445707275,-0.633614714,-1.081217612,1.208911899,1.741254464,2.85112072,0.752389976
1.64617E+18,3.455689453,-0.896897986,-1.416049286,1.299653734,2.121018955,3.151301879,0.843058333
1.64617E+18,3.465671387,-1.063064116,-1.763317248,1.40327193,2.491699247,3.391558589,0.857433474
1.64617E+18,3.475652344,-1.268147128,-2.036555512,1.360498371,2.758026706,3.54859719,0.821289813
1.64617E+18,3.485634521,-1.378456345,-2.071784647,1.092419462,2.717685375,3.747425673,0.846130007
1.64617E+18,3.495616455,-1.476276083,-1.954936967,0.737736183,2.558402684,3.960986562,0.828604707
1.64617E+18,3.505597412,-1.767870089,-1.972682467,0.434246207,2.684289577,4.258629073,0.805585603
1.64617E+18,3.515579346,-2.201246308,-2.250192418,0.074193875,3.148707029,4.623785608,0.836218339
1.64617E+18,3.525561523,-2.683466346,-2.727613531,-0.286315042,3.837035771,4.924242574,0.790781473
1.64617E+18,3.535542725,-3.049344316,-3.171365306,-0.688424747,4.453087389,5.048811544,0.702942195
1.64617E+18,3.545524414,-3.307420082,-3.248448545,-1.00261162,4.743066056,4.980189679,0.786300056
1.64617E+18,3.555506592,-3.424246134,-2.683372238,-1.239710722,4.523586059,4.771846321,1.052490683
1.64617E+18,3.565487549,-3.439112279,-2.112693288,-0.45778863,4.062085256,4.502431101,1.376505675
1.64617E+18,3.575469727,-4.039332673,-2.170566216,-1.224706922,4.746311535,4.248717364,1.642421198
1.64617E+18,3.585451416,-4.406254599,-1.785106178,-0.976105305,4.853294266,3.934147551,1.809717848
1.64617E+18,3.595432617,-5.494143359,-0.321542277,-0.587637611,5.534827789,3.623966413,1.889652292
1.64617E+18,3.605414551,-6.236421862,0.900724267,-0.662416665,6.335854929,3.261807479,1.834978635
1.64617E+18,3.615396484,-5.939082006,1.381454942,-0.825652001,6.153276693,2.846554622,1.538196032
1.64617E+18,3.625377441,-4.914413965,1.101527994,-0.685032621,5.082725473,2.469350399,1.073301079
1.64617E+18,3.635359619,-3.643453533,0.814023596,-0.501908379,3.766868737,2.207173684,0.632671077
1.64617E+18,3.645340576,-2.393653963,1.014781146,-0.560611108,2.659632472,2.079566742,0.385705386
1.64617E+18,3.655322754,-1.20391051,1.277916242,-0.514157364,1.829433856,2.050752204,0.350446131
1.64617E+18,3.665304443,-0.319313202,1.338291508,-0.657632865,1.52494789,2.094695576,0.347477656
1.64617E+18,3.6752854,0.232575415,1.293344697,-0.913855259,1.600613402,2.17164204,0.293849292
1.64617E+18,3.685267578,0.622530426,1.253355217,-1.053208857,1.751482894,2.249487649,0.227997175
1.64617E+18,3.695249512,0.912317674,1.280110537,-1.09063046,1.913238439,2.324248206,0.166801541
1.64617E+18,3.705230469,1.229379298,1.455440216,-1.066411892,2.183326362,2.407315387,0.147109884
1.64617E+18,3.715212402,1.460119314,1.644100501,-0.913927082,2.381234465,2.474411986,0.17916779
1.64617E+18,3.72519458,1.491543211,1.793058306,-0.785211197,2.460958322,2.532375137,0.227017431
1.64617E+18,3.735175537,1.411622702,1.951943046,-0.633498979,2.490799322,2.597271045,0.283144673
1.64617E+18,3.745157471,1.229642333,1.971028855,-0.476419973,2.371487087,2.665509013,0.327944903
1.64617E+18,3.755139404,1.106595799,1.958239516,-0.297495923,2.268867578,2.74650159,0.344904118
1.64617E+18,3.765120605,1.185783317,1.961069186,-0.11159933,2.294412526,2.842409669,0.331852627
1.64617E+18,3.775102295,1.36625562,1.947602971,0.012644816,2.379069491,2.944096816,0.30288631
1.64617E+18,3.785084473,1.617393112,1.899944563,0.140332892,2.499088462,3.055242953,0.278064886
1.64617E+18,3.79506543,1.926242788,1.931378981,0.297333864,2.743910252,3.173028644,0.266771852
1.64617E+18,3.805047607,2.20410462,1.780298778,0.345606604,2.854292354,3.272170542,0.273023883
1.64617E+18,3.815029297,2.477822193,1.593028486,0.298972864,2.960865979,3.350883356,0.254005252
1.64617E+18,3.825010498,2.705953487,1.51217508,0.250456597,3.109917403,3.395784917,0.218264155
1.64617E+18,3.834992432,2.839976173,1.403921626,0.180566776,3.173178999,3.402139603,0.210640649
1.64617E+18,3.844974609,2.912881251,1.270116382,0.152692388,3.181412857,3.387996815,0.229447013
1.64617E+18,3.854955322,3.003874942,1.178961362,0.080225401,3.22794837,3.362241799,0.263167182
1.64617E+18,3.8649375,3.142050072,1.042613448,0.071275869,3.311283996,3.312273689,0.324266945
1.64617E+18,3.874919434,3.359129227,0.945963923,0.072171502,3.490530852,3.240471691,0.389475183
1.64617E+18,3.884900391,3.566244621,0.895228007,0.01983575,3.676945382,3.146032287,0.429801409
1.64617E+18,3.894882324,3.656943714,0.755251966,-0.095087409,3.735329232,3.037225296,0.419220455
1.64617E+18,3.904863281,3.587607727,0.574386865,-0.243091986,3.641420491,2.929702845,0.360099701
1.64617E+18,3.914845459,3.36875221,0.431471847,-0.304356749,3.409881588,2.835703814,0.27457716
1.64617E+18,3.924827637,3.15807357,0.188852008,-0.248559239,3.173464267,2.769349716,0.197028722
1.64617E+18,3.93480835,3.025852965,-0.097007253,-0.162229009,3.031751115,2.74922791,0.16186807
1.64617E+18,3.944790283,2.898925791,-0.313022578,-0.21729983,2.9238627,2.78783871,0.247861476
1.64617E+18,3.954772705,2.608396784,-0.651700406,-0.463675642,2.728267271,2.881507466,0.407286423
1.64617E+18,3.964753418,2.237849653,-1.073970709,-0.750755677,2.593264013,3.034577238,0.5743192
1.64617E+18,3.974735596,1.787532821,-1.490963949,-1.031777874,2.546136812,3.248393445,0.7433566
1.64617E+18,3.984717529,1.226480654,-1.906613374,-1.250138739,2.588875473,3.515849246,0.905939988
1.64617E+18,3.99469873,0.607123598,-2.270461883,-1.246018006,2.660104715,3.800638734,1.011280359
1.64617E+18,4.004680664,-0.129734049,-2.483012163,-1.056193499,2.701430182,4.066801253,1.026223917
1.64617E+18,4.014662598,-1.0330571,-2.459845222,-0.651414794,2.746340605,4.298448093,0.950531465
1.64617E+18,4.024643555,-1.850115826,-2.318622395,-0.187907275,2.972246209,4.504600581,0.80377737
1.64617E+18,4.034625732,-2.511816817,-2.316828498,0.06959135,3.41785912,4.694207735,0.623317907
1.64617E+18,4.044607422,-3.138680303,-2.243457556,0.13940036,3.86055026,4.871584371,0.467866012
1.64617E+18,4.054588623,-3.68668185,-2.12724233,0.148323379,4.258964993,5.04575336,0.373805509
1.64617E+18,4.064570557,-4.203396277,-2.172035411,0.010706687,4.731426077,5.179949404,0.301064759
1.64617E+18,4.074551514,-4.633463518,-2.403937164,-0.088069986,5.220694819,5.221624008,0.2624631
1.64617E+18,4.084533691,-4.789904373,-2.571029176,-0.071393284,5.436770358,5.094599723,0.462968096
1.64617E+18,4.094515381,-4.693558214,-2.507863695,-0.044047085,5.321729904,4.799930114,0.891154584
1.64617E+18,4.104496582,-4.465231104,-2.288862632,-0.046099862,5.01789858,4.417111587,1.309044484
1.64617E+18,4.114478516,-4.422721165,-1.882653821,-0.103550099,4.807865487,4.064916012,1.551381296
1.64617E+18,4.124460449,-4.687383325,-1.302757546,-0.178264052,4.868317751,3.778680487,1.648891702
1.64617E+18,4.134441406,-5.150744348,-0.594792232,-0.262735648,5.191625483,3.515760789,1.663733918
1.64617E+18,4.144423584,-5.596189776,0.047630351,-0.255902441,5.602240151,3.224380511,1.598594666
1.64617E+18,4.154405518,-5.579068545,0.488269839,-0.077151848,5.60092543,2.891672945,1.403385207
1.64617E+18,4.164386719,-5.026671978,1.106968139,-0.104242611,5.148172118,2.567953833,1.076365642
1.64617E+18,4.174368408,-3.701106096,1.366365802,-0.202309017,3.950451972,2.304658339,0.650971545
1.64617E+18,4.184350586,-2.108786051,1.31764561,-0.131534303,2.490074263,2.166917725,0.375674051
1.64617E+18,4.194331543,-0.695708474,1.309370534,0.179482853,1.493544633,2.174593754,0.382913049
1.64617E+18,4.204313477,0.33330198,1.38107851,0.468376879,1.495942834,2.277242268,0.31880323
1.64617E+18,4.21429541,1.033970123,1.499650529,0.683347736,1.94551023,2.376335865,0.187530866
1.64617E+18,4.224276611,1.366995624,1.579910061,0.805524063,2.239120777,2.432696936,0.123261391
1.64617E+18,4.234258545,1.408634041,1.569456471,0.86083262,2.277822706,2.45981424,0.106362478
1.64617E+18,4.244239502,1.329661042,1.563673796,0.981478085,2.275164491,2.488358968,0.090864694
1.64617E+18,4.254221436,1.225080724,1.691501719,1.106905157,2.363734307,2.539191778,0.099184752
1.64617E+18,4.264203613,1.140017591,1.877961864,1.224718978,2.515217177,2.613131991,0.181921097
1.64617E+18,4.27418457,1.088233044,1.924428432,1.316392395,2.573045838,2.712367645,0.319830329
1.64617E+18,4.284166504,1.02176706,1.95606451,1.31089409,2.56683455,2.834011299,0.448966391
1.64617E+18,4.294148438,0.93284316,1.99576056,1.223639439,2.520029772,2.971095858,0.545388663
1.64617E+18,4.304129395,0.901267287,2.060173119,1.062059395,2.4868788,3.139643443,0.633301815
1.64617E+18,4.314111572,1.053547515,2.105472981,0.867588086,2.509120947,3.340760996,0.708901097
1.64617E+18,4.324093262,1.341238667,2.023261731,0.639582537,2.510293811,3.548670658,0.738760185
1.64617E+18,4.334074463,1.656232253,1.909211573,0.426800787,2.563269986,3.732399702,0.68411541
1.64617E+18,4.344056396,2.099510858,1.793417202,0.351482438,2.783492592,3.851151433,0.563257757
1.64617E+18,4.354037598,2.617553319,1.64567345,0.263873566,3.103136436,3.868626574,0.531688583
1.64617E+18,4.364019531,3.148663937,1.533168768,0.195914056,3.507573716,3.786044789,0.685931187
1.64617E+18,4.374001465,3.510954111,1.417192611,0.157933723,3.789482383,3.611662301,0.917227245
1.64617E+18,4.383982422,3.732800042,1.251541445,0.071921911,3.937680143,3.366675283,1.137693432
1.64617E+18,4.3939646,4.048313268,1.139050792,0.000692658,4.205505618,3.079939645,1.306463699
1.64617E+18,4.403946289,4.370756585,1.057832645,-0.099848687,4.498054334,2.752201302,1.39132201
1.64617E+18,4.41392749,4.470903889,0.985178912,-0.303613821,4.588217565,2.396014716,1.354214913
1.64617E+18,4.423909424,4.214263124,0.918416575,-0.545881047,4.347584249,2.038839361,1.189985074
1.64617E+18,4.433891602,3.61840677,0.754338943,-0.637581791,3.750787295,1.715497623,0.929508592
1.64617E+18,4.443872559,2.830886274,0.638639264,-0.573960237,2.958243999,1.467007157,0.638916011
1.64617E+18,4.453854248,2.179894308,0.507998622,-0.419735817,2.277318588,1.320374604,0.40545763
1.64617E+18,4.463836426,1.72141755,0.332939577,-0.191527584,1.763748836,1.259709844,0.285328325
1.64617E+18,4.473817383,1.332855454,0.126344406,-0.045763388,1.339612205,1.263493472,0.292156272
1.64617E+18,4.483799316,1.059319668,-0.103835638,-0.112485329,1.070323759,1.322829033,0.35507008
1.64617E+18,4.493780273,0.815693867,-0.412322326,-0.161383425,0.928122188,1.417815057,0.399132711
1.64617E+18,4.503762451,0.51514031,-0.750408617,-0.21901195,0.936188478,1.5303183,0.403776753
1.64617E+18,4.513744629,0.153386727,-0.970451298,-0.260568387,1.016464016,1.649117871,0.385863931
1.64617E+18,4.523725586,-0.181947636,-1.083128998,-0.187335101,1.114166868,1.771422875,0.358837198
1.64617E+18,4.533707275,-0.513323032,-1.157021918,-0.016080928,1.265882636,1.903336144,0.334623001
1.64617E+18,4.543689697,-0.824176449,-1.237968263,0.11827289,1.491918468,2.047739654,0.339915972
1.64617E+18,4.55367041,-1.027443936,-1.311181967,0.127680697,1.670670989,2.183835438,0.36187234
1.64617E+18,4.563652588,-1.183144201,-1.355996092,0.084577249,1.801585111,2.290418793,0.35185525
1.64617E+18,4.573634521,-1.324420804,-1.40779233,-0.01987126,1.932967815,2.356884948,0.313974639
1.64617E+18,4.583615723,-1.368057701,-1.481099558,-0.126117466,2.020183999,2.382671154,0.287579556
1.64617E+18,4.593597656,-1.385387021,-1.501977511,-0.20052491,2.053154617,2.389606284,0.279476428
1.64617E+18,4.603578613,-1.441128198,-1.536304728,-0.273999604,2.124184192,2.44659905,0.262659532
1.64617E+18,4.613560547,-1.531483007,-1.595013522,-0.354844827,2.239514051,2.597062582,0.419189866
1.64617E+18,4.623542725,-1.625218691,-1.779100508,-0.338248935,2.433299561,2.818125461,0.676356339
1.64617E+18,4.633523682,-1.653175204,-2.133952641,-0.23856238,2.709917736,3.028231922,0.83249721
1.64617E+18,4.643505615,-1.558709452,-2.38462953,-0.151228672,2.852876314,3.152659486,0.867857969
1.64617E+18,4.653487549,-1.397809865,-2.350365441,-0.10181816,2.736504534,3.177263676,0.86248125
1.64617E+18,4.663468506,-1.345812551,-2.064821237,-0.087603903,2.466246664,3.130532008,0.897063745
1.64617E+18,4.673450684,-1.506574776,-1.585366573,-0.128766519,2.190829875,3.030909517,1.013114334
1.64617E+18,4.683431641,-1.88891522,-0.885050312,-0.121831897,2.089535301,2.898518886,1.185994736
1.64617E+18,4.693413574,-2.614783855,-0.095597386,-0.18527583,2.623082271,2.775103521,1.320358925
1.64617E+18,4.703395508,-3.580154489,0.521710921,-0.280432925,3.628819515,2.63896874,1.39697264
1.64617E+18,4.713376709,-4.362199184,0.8444389,-0.248822274,4.450142841,2.440287946,1.383282474
1.64617E+18,4.723358643,-4.45191102,0.856302357,-0.087709409,4.534364166,2.189272821,1.213070396
1.64617E+18,4.733340576,-3.863687353,0.839674462,0.050120706,3.954193375,1.951492604,0.930140856
1.64617E+18,4.743321533,-2.95333718,0.934300373,0.090423491,3.098918213,1.770417449,0.659528022
1.64617E+18,4.753303711,-2.060020559,0.948793593,0.072935399,2.269187863,1.664446729,0.504461087
1.64617E+18,4.7632854,-1.200858137,0.847335206,0.030442119,1.470021748,1.633724039,0.475202476
1.64617E+18,4.773266602,-0.358013228,0.789090523,0.026816768,0.866923562,1.700142115,0.493734805
1.64617E+18,4.783248535,0.349637614,0.780475839,-0.016993586,0.855381656,1.838842757,0.431020852
1.64617E+18,4.793229492,0.972630396,0.795043878,-0.117767571,1.261734463,1.954244016,0.280447377
1.64617E+18,4.80321167,1.428542857,0.767401838,-0.257995614,1.642011575,1.993765709,0.194859203
1.64617E+18,4.813193359,1.72138014,0.796347946,-0.407734852,1.939991585,1.992153697,0.197806877
1.64617E+18,4.823174561,1.858669135,0.951922539,-0.538472086,2.156562,1.990413557,0.198333941
1.64617E+18,4.833156494,1.655817242,1.155347847,-0.719571727,2.143441825,2.010934984,0.223485389
1.64617E+18,4.843138428,1.200775135,1.350187113,-0.945259428,2.039211012,2.071205611,0.314024196
1.64617E+18,4.853119385,0.640119858,1.509171222,-1.077933037,1.961960969,2.172862134,0.430247272
1.64617E+18,4.863101563,0.149978965,1.736853604,-1.23112395,2.1342025,2.307768211,0.540375669
1.64617E+18,4.873083496,-0.121213473,1.86603411,-1.258341919,2.253929988,2.446400672,0.645641397
1.64617E+18,4.883064697,-0.112271457,1.729262418,-1.017207862,2.009394243,2.593227047,0.744550285
1.64617E+18,4.893046387,0.120018711,1.528726402,-0.627757147,1.656951399,2.778012468,0.803678052
1.64617E+18,4.903027588,0.548511834,1.491755977,-0.342522813,1.625891449,2.999990244,0.769197195
1.64617E+18,4.913009521,1.225699148,1.473487329,-0.151161233,1.922590188,3.219676435,0.649831875
1.64617E+18,4.922991455,1.888925741,1.41772511,-0.001480886,2.361776267,3.408305321,0.503163301
1.64617E+18,4.932972412,2.395346739,1.340444887,0.082769907,2.746148093,3.549078011,0.369973567
1.64617E+18,4.94295459,2.784550639,1.250472355,0.142706343,3.055776247,3.635893472,0.255537271
1.64617E+18,4.952936523,3.091130032,1.155293486,0.270327638,3.311021737,3.666619479,0.195311834
1.64617E+18,4.96291748,3.342374491,1.055942885,0.328067879,3.520527112,3.629151375,0.278259928
1.64617E+18,4.972899414,3.561914483,1.034441832,0.312124168,3.722193733,3.511810229,0.476278575
1.64617E+18,4.982880371,3.725438573,0.964742273,0.262193431,3.857248451,3.318865649,0.693328973
1.64617E+18,4.992862549,3.792389126,0.777778855,0.204630884,3.876729167,3.074122327,0.869636428
1.64617E+18,5.002844238,3.774532567,0.586102437,0.151099493,3.822753356,2.808314639,0.982584816
1.64617E+18,5.012825439,3.783337805,0.429511945,0.09712929,3.808879042,2.545039796,1.027201694
1.64617E+18,5.022807373,3.758677411,0.285216872,0.012232162,3.769503173,2.307508926,0.981086071
1.64617E+18,5.032789551,3.606170974,0.214086987,-0.11349762,3.614302704,2.107929051,0.85874895
1.64617E+18,5.042770508,3.354619056,0.096117026,-0.217498842,3.363036312,1.960110644,0.699115716
1.64617E+18,5.052752441,2.921171525,-0.064426003,-0.291037687,2.936340702,1.885867544,0.574505025
1.64617E+18,5.062733398,2.320644257,-0.215407422,-0.27778,2.347115645,1.906105959,0.613402142
1.64617E+18,5.072715576,1.732562044,-0.38029111,-0.259908827,1.792747936,2.03753165,0.804758725
1.64617E+18,5.082697266,1.224594402,-0.602575433,-0.353341729,1.409815228,2.2774695,1.023866395
1.64617E+18,5.092678467,0.784626529,-0.82392452,-0.436603949,1.218652294,2.599058833,1.19206668
1.64617E+18,5.1026604,0.34781975,-1.007777697,-0.528693912,1.190004924,2.964872875,1.271006687
1.64617E+18,5.112642578,-0.056816112,-1.27937404,-0.644280923,1.433570337,3.333870862,1.237355335
1.64617E+18,5.122623535,-0.527326423,-1.513914617,-0.758957688,1.773704428,3.642781829,1.10264897
1.64617E+18,5.132605469,-1.066325748,-1.657748503,-0.82329952,2.136118629,3.87447416,0.912614363
1.64617E+18,5.142587402,-1.721449114,-1.820782764,-0.7674212,2.620605316,4.05200397,0.706609244
1.64617E+18,5.152568359,-2.372739185,-1.959521957,-0.618042174,3.138724848,4.189162934,0.525310901
1.64617E+18,5.162550293,-3.018916444,-2.024186152,-0.440979534,3.66137256,4.290220669,0.394405562
1.64617E+18,5.17253125,-3.672475045,-2.005188314,-0.257042624,4.192126434,4.360377447,0.334092195
1.64617E+18,5.182513428,-4.170865881,-1.994458246,-0.152294986,4.625708557,4.374224715,0.329672083
1.64617E+18,5.192495605,-4.395566032,-2.110454569,-0.089933004,4.876792714,4.290430162,0.360182557
1.64617E+18,5.202476563,-4.258355364,-2.383086684,-0.039484454,4.879984792,4.085254561,0.517677642
1.64617E+18,5.212458252,-3.764201143,-2.507042734,-0.012686828,4.52268001,3.773902133,0.803474191
1.64617E+18,5.222439453,-3.32004517,-2.389672492,-0.000863266,4.090627739,3.430302938,1.092499651
1.64617E+18,5.232421387,-3.217502495,-2.224102283,-0.015085195,3.91141673,3.105963516,1.308427034
1.64617E+18,5.242403564,-3.426007883,-2.044820652,0.137109701,3.992194958,2.809625537,1.423008901
1.64617E+18,5.252384277,-3.690822603,-1.863407561,0.349641997,4.1493022,2.530458879,1.43739091
1.64617E+18,5.262366699,-4.130508151,-1.349372289,0.391593207,4.362940339,2.254970549,1.362788364
1.64617E+18,5.272348633,-4.258521368,-0.734291888,0.28266558,4.330599109,1.971303808,1.177060602
1.64617E+18,5.28232959,-3.764653563,-0.393055023,0.141562872,3.787763026,1.699559095,0.876256991
1.64617E+18,5.292311523,-2.817186834,-0.209796304,-0.016620807,2.825036707,1.488164877,0.53585957
1.64617E+18,5.302293701,-1.762989331,-0.046109132,-0.10062464,1.766460515,1.386183936,0.328748529
1.64617E+18,5.312274658,-1.071941834,0.177770642,-0.015140286,1.086688053,1.413553959,0.368285238
1.64617E+18,5.322256592,-0.760878574,0.346626157,0.136816481,0.847233525,1.532641907,0.4306041
1.64617E+18,5.332237549,-0.665959233,0.574140196,0.354450786,0.948036932,1.695767745,0.448658677
1.64617E+18,5.342219482,-0.723069944,0.747021313,0.600331088,1.200528384,1.875138084,0.471822652
1.64617E+18,5.35220166,-0.761124073,0.861501094,0.789246517,1.394418895,2.059459084,0.528862199
1.64617E+18,5.362182617,-0.716194798,0.965842928,0.940064636,1.526272934,2.253413728,0.600237949
1.64617E+18,5.372164551,-0.572695843,1.154374618,0.970411259,1.613151976,2.463135787,0.671670116
1.64617E+18,5.382145508,-0.359433031,1.282460315,1.013794692,1.673820851,2.693066939,0.732175008
1.64617E+18,5.392127686,-0.176409291,1.500817819,0.987558208,1.805227293,2.943392579,0.767958148
1.64617E+18,5.402109619,0.025100539,1.826912645,0.907753288,2.040160749,3.208504294,0.786661178
1.64617E+18,5.412090576,0.268318344,2.10652629,0.823326262,2.277567535,3.467838429,0.786219324
1.64617E+18,5.42207251,0.583368628,2.287657933,0.754469583,2.478491905,3.713677715,0.759501628
1.64617E+18,5.432054688,0.981792777,2.469509122,0.674349752,2.741740314,3.944923628,0.6977474
1.64617E+18,5.442035645,1.458805309,2.608061853,0.578138217,3.043738385,4.136548276,0.59683526
1.64617E+18,5.452017578,2.017457429,2.627478501,0.376227514,3.333965341,4.273306057,0.475011612
1.64617E+18,5.461998535,2.597650349,2.523507839,0.117584688,3.623493523,4.350890527,0.366133416
1.64617E+18,5.471980469,3.10657953,2.376588262,-0.091446294,3.912463491,4.37120896,0.328953025
1.64617E+18,5.481962646,3.528418456,2.207937915,-0.35106655,4.177077251,4.334592324,0.392265889
1.64617E+18,5.491943604,3.904055019,2.043964912,-0.662998995,4.456344446,4.25127778,0.492535216
1.64617E+18,5.501925537,4.168475771,1.804958587,-0.913934315,4.633502097,4.118558405,0.588802337
1.64617E+18,5.511907471,4.335997406,1.568299118,-1.081149953,4.735960394,3.940656736,0.669559962
1.64617E+18,5.521888672,4.441853736,1.343371003,-1.191008651,4.79095104,3.728019834,0.719040193
1.64617E+18,5.53187085,4.342993549,1.190490472,-1.19078982,4.657986789,3.480235844,0.736774239
1.64617E+18,5.541851807,4.090402935,1.148520631,-1.187103533,4.4113162,3.218968559,0.736047583
1.64617E+18,5.551833984,3.843087632,1.040221,-1.019390174,4.109810045,2.953588348,0.736719088
1.64617E+18,5.561815918,3.642853229,0.930276524,-0.712509168,3.826677851,2.699703328,0.731969063
1.64617E+18,5.571796875,3.396553825,0.900212225,-0.47881454,3.546297125,2.464901558,0.709037603
1.64617E+18,5.581778809,3.233874369,0.813965436,-0.247783797,3.343931814,2.260603228,0.660696582
1.64617E+18,5.59176001,3.058977236,0.65884151,-0.013046821,3.129150697,2.114282111,0.558731689
1.64617E+18,5.601741943,2.821594714,0.403065837,0.155653868,2.854485404,2.048548286,0.46652667
1.64617E+18,5.611723877,2.59440333,0.128148241,0.250232944,2.609591374,2.081301221,0.529240529
1.64617E+18,5.621704834,2.274834691,-0.130577514,0.398195674,2.313111142,2.197945275,0.72511507
1.64617E+18,5.631687012,1.90217393,-0.468599509,0.587756707,2.045313938,2.389835557,0.94941414
1.64617E+18,5.641668945,1.430620248,-0.734534756,0.708971203,1.757514088,2.649202339,1.152437605
1.64617E+18,5.651649658,0.941470703,-1.022294298,0.732435738,1.570959843,2.969310164,1.295940136
1.64617E+18,5.661631836,0.434544094,-1.251479486,0.656815338,1.478660158,3.328258035,1.35468936
1.64617E+18,5.671612793,-0.17015666,-1.389284613,0.548532073,1.503313826,3.70606469,1.312342677
1.64617E+18,5.681594971,-0.847358587,-1.583694256,0.557679183,1.880720644,4.072823831,1.147647891
1.64617E+18,5.69157666,-1.583380952,-1.79215522,0.625252909,2.471812447,4.400961336,0.920619976
1.64617E+18,5.701557861,-2.437262219,-1.923546388,0.696376364,3.18201475,4.729654764,0.742763989
1.64617E+18,5.711539795,-3.084784462,-2.078576791,0.649646323,3.776031912,5.097890817,0.795163355
1.64617E+18,5.721520996,-3.500221705,-2.346072712,0.392852413,4.232013962,5.470486321,0.94693932
1.64617E+18,5.731502686,-3.709676356,-2.785361663,0.014613778,4.638981766,5.761651038,0.96875549
1.64617E+18,5.741484863,-3.630802726,-3.354936743,-0.386405136,4.958592332,5.890491912,0.893641739
1.64617E+18,5.75146582,-3.466620464,-3.767307,-0.64812547,5.160438557,5.82293613,0.982639313
1.64617E+18,5.761447998,-3.50983709,-3.849121067,-0.706035588,5.256726704,5.569626871,1.370658156
1.64617E+18,5.771429688,-3.830971078,-3.433921433,-0.519716459,5.17090524,5.17550618,1.877052134
1.64617E+18,5.781410889,-4.516622269,-2.494309217,-0.160551285,5.162095689,4.754142469,2.263874653
1.64617E+18,5.791392822,-5.597903009,-1.34061206,0.171479068,5.758746727,4.384835794,2.459938116
1.64617E+18,5.801373779,-6.845615252,-0.285434898,0.419197764,6.864375283,4.009389971,2.507642994
1.64617E+18,5.811355713,-7.481121479,0.251907015,0.499171757,7.501986948,3.548066318,2.359979766
1.64617E+18,5.821337646,-7.115663196,0.409504345,0.481183826,7.143661134,3.018639493,1.976237858
1.64617E+18,5.831318848,-5.883889112,0.642059594,0.318695144,5.927390505,2.514934953,1.425972015
1.64617E+18,5.841300781,-4.199973902,0.838098591,0.04684658,4.283034511,2.144947517,0.860395928
1.64617E+18,5.851281982,-2.473436525,0.864920547,-0.192278622,2.627345973,1.935124085,0.489154888
1.64617E+18,5.861263672,-0.955978536,0.819995364,-0.379874931,1.315519792,1.876910579,0.434946536
1.64617E+18,5.87124585,0.259427766,0.762808665,-0.516896945,0.957268132,1.960875416,0.397938641
1.64617E+18,5.881226807,1.13756143,0.706073801,-0.604532704,1.469028935,2.106524515,0.238598216
1.64617E+18,5.891208984,1.724874997,0.734459938,-0.708905664,2.004288501,2.219733348,0.167137687
1.64617E+18,5.901190674,1.926651953,0.856831933,-0.788338097,2.251138748,2.298033461,0.222203654
1.64617E+18,5.911171875,1.857813979,0.93091716,-0.745615392,2.207718699,2.380493468,0.320682804
1.64617E+18,5.921153809,1.351318163,1.37434891,-0.850255331,2.10661573,2.482494488,0.401533224
1.64617E+18,5.931134766,0.841339765,1.838583793,-0.934657808,2.227516147,2.612555761,0.464432774
1.64617E+18,5.941116699,0.650349576,1.937380852,-0.772627171,2.184800193,2.752611304,0.533276602
1.64617E+18,5.951099121,0.558568533,1.912835025,-0.460381423,2.045210916,2.910593573,0.574109165
1.64617E+18,5.961079834,0.640975598,2.041454975,-0.257607565,2.155168158,3.08717364,0.551912456
1.64617E+18,5.971061768,0.831161486,2.260703875,-0.156913002,2.413759125,3.253012752,0.492955308
1.64617E+18,5.981042725,0.999093455,2.400890344,0.057869275,2.601117266,3.388701726,0.425386281
1.64617E+18,5.991024658,1.258514207,2.470418638,0.28663083,2.787289632,3.484716823,0.335683751
1.64617E+18,6.00100708,1.64056882,2.576177937,0.363332377,3.075738811,3.531953541,0.258605888
1.64617E+18,6.010987793,2.19590787,2.306260342,0.526674242,3.227728907,3.521444572,0.278315728
1.64617E+18,6.020969971,2.690360781,1.968502551,0.704387894,3.407228453,3.462063444,0.37957482
1.64617E+18,6.030950684,3.111403589,1.712581917,0.741035955,3.628071582,3.339782548,0.540426819
1.64617E+18,6.040933105,3.361271499,1.606723249,0.540998828,3.764622879,3.15521823,0.701584846
1.64617E+18,6.050915039,3.482825164,1.52229783,0.276310512,3.811011586,2.9319371,0.817786247
1.64617E+18,6.060895752,3.547802371,1.398069393,0.041649372,3.813559277,2.686926471,0.882202376
1.64617E+18,6.07087793,3.5659962,1.217549159,-0.137978292,3.770648865,2.426090102,0.89602897
1.64617E+18,6.080858643,3.381721582,1.071049269,-0.315347514,3.561268236,2.150863797,0.862842805
1.64617E+18,6.090841064,3.095090752,0.932523426,-0.41973304,3.259656812,1.872560924,0.810265939
1.64617E+18,6.100822998,2.830727284,0.809569247,-0.395394572,2.970649119,1.621263988,0.726454644
1.64617E+18,6.110803955,2.527929747,0.643238867,-0.365153455,2.633917632,1.42439062,0.58758188
1.64617E+18,6.120785889,2.113293299,0.455657025,-0.313139921,2.184419489,1.304148197,0.429538952
1.64617E+18,6.13076709,1.735384116,0.298375628,-0.276522985,1.782428401,1.26528722,0.360109548
1.64617E+18,6.140749023,1.511497034,0.116585814,-0.21961598,1.53181158,1.287929324,0.397128693
1.64617E+18,6.150730957,1.346224055,-0.053988195,-0.191909642,1.360905302,1.342616958,0.45967654
1.64617E+18,6.160711914,1.163372748,-0.261466578,-0.17520123,1.205195583,1.426927819,0.527599494
1.64617E+18,6.170694092,0.906646642,-0.453251133,-0.098310444,1.018385814,1.553929166,0.60597419
1.64617E+18,6.180675781,0.504083494,-0.592922054,-7.27912E-05,0.778239511,1.742031422,0.695825426
1.64617E+18,6.190656982,0.040683893,-0.745151428,0.025225334,0.746687449,2.004302186,0.773109128
1.64617E+18,6.200638916,-0.41704877,-0.910223916,0.037380467,1.001915442,2.289522683,0.782597795
1.64617E+18,6.210620117,-0.945049731,-1.073522966,0.060023366,1.4314934,2.527569255,0.713746359
1.64617E+18,6.220602051,-1.300310445,-1.230925358,0.137651964,1.795809721,2.688104989,0.624067847
1.64617E+18,6.230583984,-1.454516672,-1.378333596,0.141611515,2.008849439,2.772993552,0.550294435
1.64617E+18,6.240564941,-1.54272044,-1.392348677,0.048189738,2.078687914,2.797154685,0.520723183
1.64617E+18,6.250547119,-1.752795854,-1.335757606,-0.033699587,2.204013917,2.799707896,0.517245115
1.64617E+18,6.260528076,-2.115161431,-1.280903733,-0.109715855,2.475209047,2.811856266,0.504378165
1.64617E+18,6.270509766,-2.516912679,-1.42710201,-0.187348326,2.899408384,2.822261938,0.498363075
1.64617E+18,6.280491943,-2.862753238,-1.825295273,-0.198450442,3.400947149,2.80832059,0.497959791
1.64617E+18,6.2904729,-2.910707998,-2.11467394,-0.089217037,3.598892413,2.738227691,0.457278096
1.64617E+18,6.300455078,-2.620730196,-2.137437561,0.060301612,3.382381169,2.602773444,0.37559626
1.64617E+18,6.310436035,-2.184844624,-2.103506649,0.155486768,3.036850736,2.433657268,0.367132843
1.64617E+18,6.320417969,-1.792598872,-1.930921301,0.229228588,2.644695357,2.264310033,0.434274806
1.64617E+18,6.330399902,-1.59401925,-1.5883716,-0.027421383,2.250460762,2.12391526,0.509099809
1.64617E+18,6.340381104,-1.692073382,-1.21779232,-0.285677183,2.104220026,2.031910338,0.558642237
1.64617E+18,6.350362793,-2.137656172,-0.819441237,-0.408511097,2.325497617,1.982026881,0.572068412
1.64617E+18,6.36034375,-2.499776835,-0.508736873,-0.38067631,2.579265764,1.928433973,0.562402769
1.64617E+18,6.370325928,-2.71733822,-0.242352712,-0.418222489,2.759994908,1.868238502,0.520148128
1.64617E+18,6.380308105,-2.652117268,0.227477799,-0.452355937,2.700018157,1.806251516,0.441113329
1.64617E+18,6.390289063,-2.127841465,0.570821866,-0.428438763,2.244349945,1.758918121,0.360742295
1.64617E+18,6.400270752,-1.468987095,0.76771105,-0.336035351,1.691219412,1.768835884,0.375032074
1.64617E+18,6.410251953,-0.875882671,1.003699488,-0.173442696,1.343378384,1.841111094,0.420051089
1.64617E+18,6.420233887,-0.428850266,1.163942072,-0.027945992,1.240747628,1.9454223,0.412955407
1.64617E+18,6.43021582,-0.069192779,1.31002286,0.221466284,1.330411534,2.058100057,0.354959628
1.64617E+18,6.440196777,0.197725635,1.468901171,0.616843904,1.605385461,2.159926809,0.26667997
1.64617E+18,6.450178955,0.309457579,1.511154505,0.907305691,1.789568536,2.227514062,0.19305617
1.64617E+18,6.460159912,0.413810518,1.582646792,1.110742543,1.977311056,2.279775792,0.126793923
1.64617E+18,6.47014209,0.524722378,1.650555376,1.257166884,2.140125043,2.334281599,0.099209257
1.64617E+18,6.480123779,0.62360653,1.721796904,1.266748951,2.226684214,2.403975483,0.16277151
1.64617E+18,6.49010498,0.747748458,1.869860391,1.198589096,2.343527567,2.491848529,0.254620046
1.64617E+18,6.500086914,0.765841749,1.997410081,1.118524868,2.413971519,2.581773814,0.333068715
1.64617E+18,6.510067871,0.775432584,2.02290225,1.000953258,2.386490442,2.674711092,0.396838295
1.64617E+18,6.520049805,0.902708718,1.992542183,0.905576164,2.367525199,2.770224316,0.429567048
1.64617E+18,6.530031982,1.102689439,1.937716368,0.738664038,2.348679051,2.852345745,0.423181706
1.64617E+18,6.540012695,1.266426295,1.818440585,0.541826803,2.281257988,2.913754374,0.388796826
1.64617E+18,6.549994873,1.528676133,1.707058185,0.30871509,2.312185843,2.964253558,0.332014122
1.64617E+18,6.55997583,1.986402365,1.552418827,0.080916169,2.522369124,2.99220587,0.284274097
1.64617E+18,6.569957764,2.477655019,1.382008485,-0.014477803,2.837063879,2.971434428,0.32282071
1.64617E+18,6.579939697,2.864622539,1.196748948,-0.073006857,3.10541468,2.881832397,0.44782773
1.64617E+18,6.589920898,3.084091804,0.989326679,-0.158856098,3.242780411,2.727863884,0.587415644
1.64617E+18,6.599902588,3.230606892,0.805015821,-0.305089812,3.343344307,2.529196338,0.704046786
1.64617E+18,6.609883545,3.246141145,0.656233373,-0.445384747,3.341622682,2.30938554,0.756713902
1.64617E+18,6.619865723,3.103119745,0.496467759,-0.540580384,3.18873949,2.081164534,0.755131101
1.64617E+18,6.6298479,2.903423686,0.262349791,-0.528471282,2.962765332,1.853467415,0.729694133
1.64617E+18,6.639828857,2.74797009,0.047568391,-0.457805362,2.78624983,1.647014086,0.676774576
1.64617E+18,6.649810547,2.563029118,-0.042798693,-0.382106489,2.591708964,1.469920366,0.58032793
1.64617E+18,6.659791748,2.291001982,-0.057988663,-0.324920959,2.314654704,1.327956355,0.446830294
1.64617E+18,6.669773682,1.918295043,-0.093126027,-0.281285962,1.941043566,1.230065532,0.304505179
1.64617E+18,6.679755615,1.547887614,-0.187629189,-0.142647306,1.565729552,1.189301427,0.222966472
1.64617E+18,6.689736572,1.192127718,-0.391477106,0.058110536,1.256104954,1.201063967,0.244570574
1.64617E+18,6.69971875,0.957701707,-0.598968933,0.188705878,1.145236329,1.251724044,0.297471878
1.64617E+18,6.709699707,0.787623373,-0.645765755,0.291532338,1.059412616,1.319054783,0.339043626
1.64617E+18,6.719681885,0.537272647,-0.668017334,0.310503435,0.911768304,1.405073577,0.369966843
1.64617E+18,6.729663574,0.207547941,-0.80067107,0.35024347,0.898232041,1.518881353,0.37571452
1.64617E+18,6.739644775,-0.030427287,-0.937366775,0.388944007,1.015312627,1.657136877,0.376266287
1.64617E+18,6.749626709,-0.273901697,-1.066242746,0.402305447,1.172068857,1.803931998,0.383513037
1.64617E+18,6.759607666,-0.52757426,-1.149305644,0.430093691,1.335746475,1.963639772,0.418108236
1.64617E+18,6.7695896,-0.763862558,-1.248274552,0.45787324,1.533402514,2.12429762,0.453167763
1.64617E+18,6.779571533,-1.045069609,-1.255681029,0.405929263,1.683354954,2.248112202,0.443856527
1.64617E+18,6.789552734,-1.225832419,-1.203997019,0.393519425,1.762705727,2.347449581,0.416673543
1.64617E+18,6.799534668,-1.363361067,-1.135540738,0.398616456,1.818543716,2.537425834,0.525605117
1.64617E+18,6.809515869,-1.43253631,-1.200396949,0.437896327,1.91960056,2.864126495,0.87586649
1.64617E+18,6.819497559,-1.325478788,-1.505683964,0.42177083,2.049846055,3.29081496,1.264781751
1.64617E+18,6.829479736,-1.148159981,-1.941554923,0.337762905,2.280787286,3.72627366,1.491814327
1.64617E+18,6.839460693,-0.996381274,-2.26684077,0.187767282,2.483263835,4.019102935,1.466522891
1.64617E+18,6.849442627,-0.971388871,-2.592672561,-0.051240212,2.769146602,4.137442499,1.383194347
1.64617E+18,6.859423584,-1.007582467,-2.743277548,-0.341294586,2.942324953,4.105314316,1.417899259
1.64617E+18,6.869405762,-1.246051031,-2.41952724,-0.524142094,2.771548335,3.962447691,1.589478182
1.64617E+18,6.879386719,-2.050910785,-1.574385744,-0.692785134,2.676728743,3.794512496,1.783325205
1.64617E+18,6.889368652,-3.513018643,-0.529428948,-0.889988061,3.662468258,3.64164576,1.931917919
1.64617E+18,6.899350586,-5.005438052,0.091729605,-0.894425897,5.085550324,3.406483498,2.054318651
1.64617E+18,6.909331543,-6.134554894,0.39774435,-0.693999186,6.186485205,3.040968195,2.048216007
1.64617E+18,6.919313721,-6.31830578,0.823284469,-0.646511897,6.404433065,2.565700991,1.799493512
1.64617E+18,6.929294678,-5.10879555,0.836748346,-0.578424596,5.209080032,2.080484454,1.277442806
1.64617E+18,6.939276611,-3.513001107,0.878252907,-0.576096153,3.666659477,1.742395845,0.738315811
1.64617E+18,6.949258545,-2.143180488,0.981754198,-0.659528615,2.447864764,1.590438082,0.41002085
1.64617E+18,6.959239746,-1.01638069,0.824454097,-0.76053166,1.513658704,1.586885812,0.402664927
1.64617E+18,6.96922168,-0.2281009,0.697369101,-0.809036017,1.092196393,1.699225741,0.509184371
1.64617E+18,6.979202881,0.153196173,0.769974903,-0.837684019,1.148061381,1.877359829,0.573227062
1.64617E+18,6.98918457,0.312150471,0.973916344,-0.819978851,1.310845635,2.065406079,0.610375391
1.64617E+18,6.999166748,0.309079393,1.160850536,-0.776487208,1.430397295,2.23541195,0.613283517
1.64617E+18,7.009147705,0.164066527,1.230716684,-0.71710446,1.433813163,2.398830099,0.594439304
1.64617E+18,7.019129639,0.147508191,1.359721834,-0.734120477,1.552267698,2.581657718,0.548933541
1.64617E+18,7.029110596,0.352718044,1.590845296,-0.828911515,1.828193938,2.774889972,0.489442193
1.64617E+18,7.039092529,0.66590721,1.847687722,-0.86751261,2.147081847,2.955412648,0.437091966
1.64617E+18,7.049074707,1.061124672,2.005857007,-0.818502495,2.412342065,3.112332245,0.398719625
1.64617E+18,7.059055664,1.531432738,2.020878635,-0.724457161,2.637057995,3.249650908,0.369380082
1.64617E+18,7.069037598,1.904061935,2.050998464,-0.652050535,2.873537272,3.37193895,0.348145597
1.64617E+18,7.079018555,2.102966551,2.106011326,-0.560539833,3.028523885,3.468932895,0.330441969
1.64617E+18,7.089000732,2.190157928,2.034799608,-0.358250982,3.010904343,3.529388429,0.298052706
1.64617E+18,7.098982422,2.342685992,1.969893129,-0.151613142,3.064578787,3.558803139,0.257138725
1.64617E+18,7.108963623,2.65616099,1.893431236,-0.030884531,3.262089347,3.538590022,0.299628243
1.64617E+18,7.118945557,3.004441928,1.763572684,0.074224051,3.484590237,3.445893001,0.467304293
1.64617E+18,7.128926758,3.26065307,1.594807186,0.16271935,3.633420701,3.276316724,0.681215134
1.64617E+18,7.138908691,3.447318382,1.375942901,0.183024325,3.716277815,3.042070642,0.889153916
1.64617E+18,7.148889648,3.586856617,1.192691781,0.205361683,3.785528694,2.764995506,1.052576969
1.64617E+18,7.158871582,3.702259942,1.060936456,0.258475872,3.859938422,2.479765992,1.121583161
1.64617E+18,7.168854004,3.717347037,0.929410847,0.299732888,3.843476723,2.206730272,1.084072222
1.64617E+18,7.178834717,3.537265195,0.775747057,0.291952171,3.633079221,1.944888796,0.967018611
1.64617E+18,7.188816406,3.225915519,0.67965575,0.234312175,3.305051447,1.714161977,0.797005123
1.64617E+18,7.198797607,2.799278252,0.587875876,0.109770581,2.862447617,1.536982667,0.594982639
1.64617E+18,7.208779541,2.299509699,0.402984588,0.051380278,2.335119133,1.426958031,0.413866558
1.64617E+18,7.218761963,1.77643275,0.199361127,0.066674841,1.788827467,1.410878537,0.380009126
1.64617E+18,7.228742676,1.288936818,-0.028388475,0.06643336,1.290959882,1.499922955,0.532048491
1.64617E+18,7.238724854,0.911036986,-0.251996739,-0.023011531,0.945526455,1.672571466,0.692234676
1.64617E+18,7.248705566,0.746110628,-0.534933391,-0.167600911,0.933233554,1.89488782,0.77507542
1.64617E+18,7.258687988,0.701987993,-0.807350986,-0.362423738,1.129581216,2.115774559,0.784236647
1.64617E+18,7.268669678,0.602662527,-0.958906406,-0.466983086,1.225061966,2.309774983,0.755717372
1.64617E+18,7.278650635,0.425038599,-1.135487547,-0.53645607,1.325811033,2.502412501,0.697981962
1.64617E+18,7.288632813,0.091510993,-1.361858262,-0.698461865,1.533258348,2.707311127,0.618758267
1.64617E+18,7.298613525,-0.428438179,-1.516792803,-0.788120289,1.762201257,2.912305756,0.52888368
1.64617E+18,7.308595947,-1.047715155,-1.729147267,-0.800017721,2.174324187,3.102240023,0.409273344
1.64617E+18,7.31857666,-1.648543452,-1.954173582,-0.801253181,2.679271647,3.23359289,0.281101477
1.64617E+18,7.328558838,-2.091760682,-2.024215671,-0.795023566,3.017444996,3.270388112,0.224522358
1.64617E+18,7.338540771,-2.277017296,-2.082229468,-0.721185811,3.168689997,3.233564542,0.285030882
1.64617E+18,7.348521973,-2.283849188,-2.093868468,-0.522059442,3.142100943,3.174904523,0.34615411
1.64617E+18,7.358503662,-2.355551319,-1.956854199,-0.210842325,3.069585454,3.123560691,0.383297395
1.64617E+18,7.368484619,-2.584442492,-1.800312223,0.105304157,3.151437142,3.080678779,0.409994806
1.64617E+18,7.378466797,-2.911271477,-1.673282757,0.337461073,3.374797294,3.015086297,0.444448727
1.64617E+18,7.388448975,-3.11690394,-1.714168894,0.431149995,3.583204639,2.887014581,0.503009285
1.64617E+18,7.398429932,-2.975604541,-2.019586549,0.688441552,3.661543935,2.697530127,0.55885882
1.64617E+18,7.408411865,-2.548293905,-2.226986606,0.843709855,3.487852848,2.469127753,0.584350833
1.64617E+18,7.418392822,-2.072791193,-2.106398279,0.743099098,3.04722387,2.249030762,0.573596905
1.64617E+18,7.428374756,-1.83273156,-1.833657443,0.545073676,2.649209298,2.089856304,0.550398103
1.64617E+18,7.438355957,-1.939232033,-1.646723543,0.441439114,2.582089812,1.991387596,0.52919308
1.64617E+18,7.448337646,-2.193894192,-1.396575647,0.382455084,2.628662617,1.915253771,0.492206981
1.64617E+18,7.458319824,-2.414154899,-1.01159784,0.349532253,2.64076634,1.841299977,0.43124425
1.64617E+18,7.468300781,-2.385078443,-0.598875701,0.424653326,2.495512318,1.770628645,0.34339894
1.64617E+18,7.478282959,-2.035698019,-0.134257079,0.472313707,2.094080138,1.713408825,0.253839271
1.64617E+18,7.488263916,-1.569389836,0.320898426,0.533478735,1.688360097,1.671208689,0.219848303
1.64617E+18,7.49824585,-1.050093575,0.564661005,0.689944431,1.377520194,1.646170948,0.230469971
1.64617E+18,7.508227783,-0.46568216,0.705792062,0.970085241,1.286882933,1.675020346,0.212382137
1.64617E+18,7.518208984,0.087552027,0.791762957,1.218140403,1.455479295,1.753534531,0.199092647
1.64617E+18,7.528190674,0.624638211,0.774272893,1.334527187,1.66452222,1.838954751,0.23321132
1.64617E+18,7.538172363,1.029053709,0.66843293,1.345132752,1.820751559,1.907734676,0.27012721
1.64617E+18,7.548154541,1.155568212,0.563153523,1.384309309,1.889124677,1.940818693,0.277604354
1.64617E+18,7.558135498,1.103528812,0.536017094,1.495149126,1.934053018,1.950862663,0.277369219
1.64617E+18,7.568117432,0.98792558,0.636637861,1.522442937,1.923314123,1.979137762,0.288406701
1.64617E+18,7.578099365,0.641360798,0.873937966,1.273081369,1.672078771,2.053469906,0.352996958
1.64617E+18,7.588080322,0.018667291,1.204565175,0.785155083,1.437982695,2.197106634,0.448025547
1.64617E+18,7.5980625,-0.64653031,1.517793504,0.232173775,1.666014173,2.400904701,0.514892005
1.64617E+18,7.608043457,-1.185942892,1.681288368,-0.245143987,2.072024781,2.614828607,0.602132386
1.64617E+18,7.618025391,-1.362121881,1.775759965,-0.570902018,2.30968149,2.808366422,0.699692254
1.64617E+18,7.628007324,-1.214768589,1.884521369,-0.711570645,2.35232147,2.984800802,0.770558712
1.64617E+18,7.637988525,-0.726092507,1.873190996,-0.770254597,2.151591732,3.160813771,0.806186509
1.64617E+18,7.647970215,0.004001637,1.823591976,-0.795526693,1.989564381,3.35609626,0.773942606
1.64617E+18,7.657951416,0.819026227,1.853119099,-0.899647504,2.216804003,3.55713201,0.64287012
1.64617E+18,7.66793335,1.706787551,1.788911708,-0.998807478,2.666635562,3.716395392,0.463287245
1.64617E+18,7.677915527,2.46544085,1.603603071,-1.006228349,3.108446056,3.794861977,0.324508826
1.64617E+18,7.687896484,3.041805152,1.424910638,-0.89407628,3.475963363,3.783667444,0.349001501
1.64617E+18,7.697878418,3.480594629,1.332708739,-0.767659174,3.805253232,3.689654659,0.509120728
1.64617E+18,7.707859375,3.750988025,1.276498776,-0.59993164,4.007402933,3.51447199,0.703493347
1.64617E+18,7.717841553,3.910300635,1.09103115,-0.341880058,4.074025283,3.278628919,0.873494008
1.64617E+18,7.72782251,4.029826594,0.813916921,-0.101446788,4.112451165,3.010309485,0.992022704
1.64617E+18,7.737804199,4.068253063,0.540011132,0.062775605,4.104416619,2.729018217,1.037394034
1.64617E+18,7.747786377,3.975334541,0.437500021,0.068440718,3.999921888,2.462974015,0.990640449
1.64617E+18,7.757767334,3.786828569,0.413009139,0.034194969,3.809437814,2.216643615,0.877657407
1.64617E+18,7.767749512,3.430271386,0.380305724,-0.009339929,3.451301415,1.988647295,0.715416654
1.64617E+18,7.777730225,2.976094955,0.33737376,-0.08974603,2.996500723,1.816957723,0.524282225
1.64617E+18,7.787712402,2.524383453,0.205333772,-0.125650287,2.535835517,1.727217747,0.368302729
1.64617E+18,7.797693359,2.052897575,0.021705051,-0.04124328,2.053426544,1.71592092,0.344275812
1.64617E+18,7.807675537,1.63000008,-0.209386847,0.135522259,1.648972224,1.776448536,0.438582929
1.64617E+18,7.817657227,1.294500882,-0.412904509,0.29696472,1.390830943,1.899283528,0.54482456
1.64617E+18,7.827638428,0.997964744,-0.68038874,0.479518304,1.299538484,2.070305083,0.621414875
1.64617E+18,7.837620361,0.712086778,-1.008142439,0.749429032,1.443974595,2.276473995,0.671484034
1.64617E+18,7.847601318,0.466968692,-1.226426878,0.799382199,1.536617892,2.508293072,0.740657195
1.64617E+18,7.857583252,0.120982003,-1.374900114,0.659018693,1.529474618,2.774838675,0.818535653
1.64617E+18,7.867565186,-0.332746684,-1.614181164,0.540242457,1.73440569,3.078545232,0.86237417
1.64617E+18,7.877546387,-0.941354383,-1.820022301,0.45562663,2.099100968,3.3672652,0.847208556
1.64617E+18,7.88752832,-1.634111607,-1.753119094,0.35572234,2.422867245,3.587861232,0.772154018
1.64617E+18,7.897509521,-2.1069904,-1.599142,0.268395902,2.658702699,3.740825707,0.671118183
1.64617E+18,7.907491211,-2.410911972,-1.552622241,0.236326876,2.877322149,3.855612328,0.566177396
1.64617E+18,7.917472412,-2.611508779,-1.640525565,0.324325624,3.101046491,3.942273379,0.467534783
1.64617E+18,7.927454346,-2.787918069,-1.81629422,0.475856238,3.361227605,3.980888483,0.408706229
1.64617E+18,7.937436523,-3.180610981,-1.927321231,0.56836154,3.762165357,3.931205725,0.500828406
1.64617E+18,7.947417236,-3.720491765,-1.895029319,0.473529512,4.202073927,3.761455926,0.753361253
1.64617E+18,7.957399414,-4.163573386,-1.85885209,0.25022951,4.566540182,3.490588494,0.994574048
1.64617E+18,7.967380371,-4.271409491,-1.764091155,0.047744844,4.621605372,3.181283842,1.088397042
1.64617E+18,7.977362305,-4.044997275,-1.462883518,-0.177543117,4.305061289,2.879094199,1.065821207
1.64617E+18,7.987344238,-3.813811269,-0.936660672,-0.447058708,3.952511999,2.61170817,1.008397286
1.64617E+18,7.997325195,-3.711518185,-0.458923918,-0.709921417,3.806568903,2.381519248,0.93620039
1.64617E+18,8.007307373,-3.635769408,-0.072691727,-0.890465323,3.743932661,2.179474077,0.817326512
1.64617E+18,8.01728833,-3.33531522,0.208361595,-0.996395741,3.487197535,2.00278894,0.629403057
1.64617E+18,8.027270264,-2.63331203,0.431488214,-1.041284392,2.864400026,1.865788845,0.397921105
1.64617E+18,8.037251221,-1.633667955,0.710808428,-1.043423084,2.064667368,1.803166194,0.261847692
1.64617E+18,8.047233398,-0.602504121,0.939650502,-0.992112949,1.493399607,1.829734699,0.298014385
1.64617E+18,8.057215332,0.135115742,1.12380237,-0.943395753,1.473493663,1.913304613,0.308954623
1.64617E+18,8.067196533,0.487087936,1.264967329,-0.849512623,1.599708941,2.001793315,0.296797258
1.64617E+18,8.077178223,0.5296347,1.37713591,-0.695557668,1.631200999,2.100496709,0.310476518
1.64617E+18,8.08715918,0.415569929,1.518748028,-0.495238948,1.650622778,2.228188154,0.351128921
1.64617E+18,8.097141357,0.287404737,1.745724892,-0.245066794,1.78611719,2.384395804,0.403061692
1.64617E+18,8.107122314,0.178168702,1.969035635,0.002240911,1.977081293,2.561468909,0.482467186
1.64617E+18,8.117104248,0.182010764,2.108771438,0.049764294,2.117196585,2.748421572,0.573437552
1.64617E+18,8.127086182,0.193791803,2.22745627,-0.10150851,2.238173513,2.937617788,0.641978771
1.64617E+18,8.137067383,0.167388949,2.313020338,-0.229042053,2.330352421,3.129260654,0.688906833
1.64617E+18,8.147049316,0.272604643,2.305465392,-0.187661922,2.329098745,3.319674932,0.704743876
1.64617E+18,8.157030518,0.537491258,2.296221763,-0.020692952,2.358380681,3.516082786,0.674340011
1.64617E+18,8.167012207,0.910603271,2.414530162,0.179121582,2.586742887,3.716507992,0.593465629
1.64617E+18,8.176993408,1.463225463,2.45992764,0.514648143,2.908115448,3.892229152,0.482758241
1.64617E+18,8.186975342,2.03181504,2.368581481,0.763535226,3.212699275,4.017489565,0.357387857
1.64617E+18,8.196957275,2.545097155,2.31430687,0.90423096,3.556848246,4.07398464,0.255964736
1.64617E+18,8.206938232,2.968623596,2.234360642,0.995639954,3.846607915,4.041318073,0.330012165
1.64617E+18,8.21692041,3.266239931,2.068464562,1.061359942,4.009158747,3.922042678,0.532349387
1.64617E+18,8.226901367,3.520773495,1.907165747,1.107967526,4.154602174,3.72451334,0.774687333
1.64617E+18,8.236883301,3.721323539,1.622598279,1.204107786,4.234495203,3.450783046,1.019332254
1.64617E+18,8.246864502,3.873832315,1.337934365,1.278564038,4.293177281,3.117024429,1.232254115
1.64617E+18,8.256846191,4.028192855,1.108532904,1.255938511,4.36263274,2.758908501,1.352876648
1.64617E+18,8.266828369,4.097065316,0.926091932,1.107406969,4.343954496,2.423546585,1.329220707
1.64617E+18,8.276809326,3.995443847,0.795771023,0.845437337,4.160719571,2.141265642,1.183123558
1.64617E+18,8.28679126,3.670834292,0.647322922,0.613667978,3.77765003,1.921165054,0.973043565
1.64617E+18,8.296772217,3.174197022,0.4237357,0.423084835,3.230182573,1.767120561,0.767084452
1.64617E+18,8.306754395,2.633582079,0.147651398,0.292207753,2.653853966,1.691853063,0.647428212
1.64617E+18,8.316735352,2.025085439,-0.035077743,0.185490861,2.03386537,1.698244525,0.657136311
1.64617E+18,8.326717529,1.407564951,-0.15709961,0.053082332,1.417299232,1.795227407,0.762612745
1.64617E+18,8.336699219,0.820090056,-0.359026789,-0.054752823,0.89690903,1.980346352,0.866069329
1.64617E+18,8.346680176,0.274449978,-0.628996991,-0.189762036,0.712018002,2.238021808,0.888423006
1.64617E+18,8.356662354,-0.272374341,-0.899475143,-0.367239833,1.009013583,2.538332007,0.827298233
1.64617E+18,8.366643311,-0.791101862,-1.171637303,-0.561521319,1.521145068,2.840608295,0.763025268
1.64617E+18,8.376625244,-1.08707043,-1.471619782,-0.702204266,1.959713687,3.133406289,0.762306484
1.64617E+18,8.386607178,-1.23052613,-1.694499148,-0.787124337,2.237205095,3.417231024,0.799920942
1.64617E+18,8.396588379,-1.346236914,-1.915543114,-0.810175688,2.477507598,3.681181199,0.802474092
1.64617E+18,8.406570313,-1.409164203,-2.176252737,-0.815135795,2.717768586,3.895881472,0.736187769
1.64617E+18,8.416551514,-1.600804965,-2.432839726,-0.735454356,3.003694188,4.03902858,0.623783117
1.64617E+18,8.426533203,-1.883379797,-2.597029587,-0.625568624,3.268488678,4.115483011,0.532354294
1.64617E+18,8.436514404,-2.203523605,-2.641767431,-0.481546815,3.473663595,4.136830145,0.501338799
1.64617E+18,8.446496338,-2.661843128,-2.577360718,-0.27188137,3.715119996,4.134270092,0.504772284
1.64617E+18,8.456478271,-3.174873314,-2.484980832,-0.016465397,4.031776458,4.154075899,0.491652598
1.64617E+18,8.466459229,-3.656540394,-2.527044781,0.196138585,4.449125006,4.190465886,0.494711439
1.64617E+18,8.476441406,-3.952539941,-2.685125219,0.433544306,4.797961035,4.189302448,0.49411509
1.64617E+18,8.486422363,-3.932373351,-2.798928708,0.696209483,4.876706853,4.098104422,0.456055389
1.64617E+18,8.496404297,-3.614808454,-2.719323257,0.961528279,4.624510327,3.899108201,0.504483993
1.64617E+18,8.506385254,-3.115888626,-2.436832595,1.252706982,4.149239666,3.653799601,0.663472775
1.64617E+18,8.516367188,-2.790492304,-2.104489231,1.408509538,3.768238493,3.450092936,0.782185966
1.64617E+18,8.526348389,-2.803340679,-1.56741006,1.344824271,3.48196002,3.301869945,0.84571414
1.64617E+18,8.536329346,-3.172680772,-0.854308552,1.045654131,3.448063072,3.201700607,0.877187818
1.64617E+18,8.546311279,-3.85052392,-0.198053552,0.668732278,3.91317806,3.123068152,0.886770468
1.64617E+18,8.55629248,-4.360846601,0.271243291,0.481055524,4.395676332,3.013004252,0.849389937
1.64617E+18,8.56627417,-4.3763376,0.618481442,0.395566567,4.437490619,2.863893137,0.713601315
1.64617E+18,8.576255127,-3.753929924,0.945579307,0.338727805,3.88598078,2.717480122,0.491291636
1.64617E+18,8.586237305,-2.574262459,1.272174484,0.29671449,2.88674464,2.630735251,0.326139
1.64617E+18,8.596218262,-1.410398128,1.638773169,0.200706806,2.171424325,2.647731989,0.343029588
1.64617E+18,8.606200195,-0.603089228,2.013770264,0.205639367,2.112173015,2.728138793,0.315055283
1.64617E+18,8.616182129,0.125167179,2.272882973,0.210170033,2.28600859,2.795594242,0.23898007
1.64617E+18,8.62616333,0.69924717,2.369634205,0.218196468,2.480266633,2.828532356,0.182499774
1.64617E+18,8.636145264,1.036917282,2.440966334,0.226578658,2.661738526,2.83249378,0.175180327
1.64617E+18,8.646126465,1.207688275,2.528075293,0.246374369,2.812539064,2.820574847,0.189834497
1.64617E+18,8.656108154,1.44081957,2.499805476,0.33393173,2.904565175,2.807730513,0.194237888
1.64617E+18,8.666089355,1.649965009,2.428378071,0.470603761,2.97336047,2.800662246,0.191856963
1.64617E+18,8.676071289,1.859576897,2.29676946,0.615109482,3.018532071,2.798188254,0.189762146
1.64617E+18,8.686053223,2.059802532,2.141971697,0.716002198,3.056712019,2.802206705,0.194745693
1.64617E+18,8.69603418,2.081276113,1.99244223,0.74297949,2.975492366,2.812448992,0.209960611
1.64617E+18,8.706016357,1.984467598,1.818741613,0.721053051,2.786727508,2.829209306,0.228203741
1.64617E+18,8.715997314,1.856317603,1.734782643,0.620385011,2.615389727,2.841132993,0.228786881
1.64617E+18,8.725979248,1.816779958,1.69512634,0.419114397,2.51988087,2.852310781,0.220048409
1.64617E+18,8.735960205,1.991538559,1.565852309,0.215492836,2.542549203,2.869805181,0.198857902
1.64617E+18,8.745942139,2.295819612,1.390239137,0.028588527,2.684095724,2.885498457,0.17745292
1.64617E+18,8.755924316,2.566879363,1.193318389,-0.134207249,2.833882501,2.888590543,0.174155329
1.64617E+18,8.765905273,2.736860082,1.060488128,-0.281646904,2.948620552,2.872522262,0.185504484
1.64617E+18,8.775887207,2.873320809,0.961924293,-0.41770358,3.058716577,2.830753154,0.209181079
1.64617E+18,8.785868164,2.983880202,0.830064922,-0.622562793,3.159134892,2.756284735,0.244365466
1.64617E+18,8.795850342,2.934424974,0.765282361,-0.826161193,3.143095502,2.630797579,0.316753339
1.64617E+18,8.805831299,2.691993351,0.656003656,-0.876047944,2.905964384,2.472348114,0.404897654
1.64617E+18,8.815813477,2.527010879,0.542796379,-0.870075446,2.72716761,2.311359125,0.507527646
1.64617E+18,8.825795166,2.522009125,0.442637969,-0.840013485,2.694824865,2.142440995,0.611481105
1.64617E+18,8.835776123,2.564619017,0.289570391,-0.791252888,2.699481959,1.972556435,0.667812124
1.64617E+18,8.845758301,2.609676887,0.16117139,-0.731385937,2.715016586,1.826969671,0.651974782
1.64617E+18,8.855739258,2.593513103,0.108865448,-0.638619391,2.673199699,1.719574239,0.581490122
1.64617E+18,8.865721191,2.472570848,-0.00125263,-0.540366375,2.530929471,1.642485175,0.494557467
1.64617E+18,8.875702148,2.259201654,-0.160195823,-0.47443764,2.314032387,1.594818948,0.424662379
1.64617E+18,8.885684326,1.83746911,-0.339816477,-0.366675404,1.904263327,1.599209254,0.432234593
1.64617E+18,8.89566626,1.424251297,-0.594108049,-0.218587514,1.558600857,1.675035574,0.533699987
1.64617E+18,8.905647217,0.97584059,-0.842300135,-0.134442227,1.296074491,1.812971553,0.651115666
1.64617E+18,8.91562915,0.540312161,-0.881062119,-0.095957707,1.037986306,2.00489376,0.746358334
1.64617E+18,8.925610352,0.157737324,-0.983242391,0.01811163,0.995979264,2.231849357,0.762718974
1.64617E+18,8.935592285,-0.185420865,-1.220626083,0.14922347,1.243614319,2.455944185,0.692677752
1.64617E+18,8.945573242,-0.505405683,-1.536663624,0.276252352,1.641062266,2.645413965,0.58608182
1.64617E+18,8.955555176,-0.89207042,-1.648158252,0.326442178,1.902309058,2.786057775,0.488882739
1.64617E+18,8.965536133,-1.216843641,-1.635640131,0.252955866,2.054267207,2.893354903,0.391117626
1.64617E+18,8.975518311,-1.450388193,-1.844036798,0.236139683,2.357935447,2.960828085,0.284103566
1.64617E+18,8.985500244,-1.815992607,-1.936219992,0.205597903,2.662526526,2.964918338,0.275560232
1.64617E+18,8.995481201,-2.171881682,-1.965598646,0.225753533,2.937960643,3.029887798,0.273185381
1.64617E+18,9.005463135,-2.388800093,-2.131197205,0.299607362,3.215296562,3.236468421,0.648636645
1.64617E+18,9.015444336,-2.386459668,-2.283309674,0.176474027,3.307542274,3.562580983,1.167932065
1.64617E+18,9.02542627,-2.171148692,-2.400695114,-0.021822979,3.236927542,3.94410204,1.574638016
1.64617E+18,9.035407471,-1.780629617,-2.57497733,-0.218753006,3.138312119,4.27901144,1.736457562
1.64617E+18,9.04538916,-1.266367843,-2.756604647,-0.291035714,3.047500366,4.494409245,1.71506342
1.64617E+18,9.055371338,-0.852251035,-2.833810052,-0.309001396,2.97528034,4.56496127,1.667955673
1.64617E+18,9.065352295,-0.782657859,-2.577704709,-0.436257766,2.728999034,4.508652712,1.729056763
1.64617E+18,9.075334229,-1.579889018,-1.67436646,-0.674441449,2.398837973,4.399936041,1.866270925
1.64617E+18,9.085315186,-3.159229755,-0.612608166,-0.7840838,3.31222113,4.325131358,1.957731301
1.64617E+18,9.095297119,-4.954243871,0.04951368,-0.70049907,5.003766869,4.197441951,2.058671641
1.64617E+18,9.10527832,-6.451411351,0.380118092,-0.422902062,6.476422187,3.93066592,2.109131968
1.64617E+18,9.115260254,-7.100989943,0.547984595,-0.096242771,7.122752835,3.524669633,1.96590929
1.64617E+18,9.125242188,-6.54547086,0.725111679,0.081878182,6.586021543,3.046506068,1.575315305
1.64617E+18,9.135223145,-5.192256508,1.024077382,0.008553747,5.292290175,2.617670817,1.049274677
1.64617E+18,9.145205322,-3.519958671,1.288359895,-0.187572563,3.753020614,2.320999245,0.553296018
1.64617E+18,9.155186279,-1.930820763,1.400105867,-0.360996262,2.41219476,2.178447714,0.284167658
1.64617E+18,9.165168213,-0.647244011,1.437666659,-0.458042751,1.641832328,2.16151358,0.274618889
1.64617E+18,9.17514917,0.314348858,1.493563903,-0.628938028,1.650791137,2.217787212,0.213136872
1.64617E+18,9.185131104,0.97142102,1.570877444,-0.855126591,2.035327057,2.283579611,0.098878815
1.64617E+18,9.195112305,1.33597797,1.613915791,-1.033133745,2.336006561,2.333190401,0.085417116
1.64617E+18,9.205094238,1.389369953,1.602622828,-1.157811241,2.416459324,2.38909308,0.189042142
1.64617E+18,9.215076172,1.222691783,1.608070572,-1.183200534,2.341117183,2.467156301,0.30798429
1.64617E+18,9.225057129,0.979642321,1.675162579,-1.230209027,2.297669034,2.572391881,0.409874944
1.64617E+18,9.235039307,0.807015471,1.761052225,-1.286746906,2.325574448,2.704184672,0.501904918
1.64617E+18,9.245020264,0.788340581,1.783905862,-1.270228318,2.327505312,2.853483495,0.582638542
1.64617E+18,9.255002197,0.830327957,1.75074009,-1.129537991,2.242853418,3.013350742,0.633492016
1.64617E+18,9.264983154,1.012741457,1.710698003,-0.9528851,2.204568649,3.178657579,0.626508049
1.64617E+18,9.274965332,1.377728615,1.71511465,-0.70029361,2.308715128,3.336114382,0.555780785
1.64617E+18,9.284947266,1.811787556,1.721860033,-0.400982309,2.531434955,3.472256761,0.442673525
1.64617E+18,9.294928223,2.28896317,1.767178015,-0.137650229,2.895033353,3.574161589,0.312526202
1.64617E+18,9.304910156,2.65624633,1.779051992,0.026901159,3.197091527,3.617145227,0.23647021
1.64617E+18,9.314891113,2.921922051,1.717121898,0.171822036,3.393472984,3.608490752,0.252711196
1.64617E+18,9.324873291,3.202987648,1.657770715,0.255357923,3.615596947,3.56830695,0.309315458
1.64617E+18,9.334854248,3.428459952,1.661689934,0.256651177,3.818562676,3.483613055,0.390157926
1.64617E+18,9.344836182,3.549474104,1.658072912,0.258649986,3.926177787,3.345894573,0.480274009
1.64617E+18,9.354817139,3.539600945,1.606811512,0.259977801,3.895921783,3.167814717,0.55623874
1.64617E+18,9.364799316,3.473023317,1.473542274,0.220581537,3.779136675,2.961559328,0.626036016
1.64617E+18,9.37478125,3.364958079,1.461507553,0.104749757,3.670138923,2.751438811,0.667605595
1.64617E+18,9.384762207,3.242868992,1.445481717,-0.01773381,3.550483232,2.55545026,0.656727822
1.64617E+18,9.394744141,3.036342211,1.347389591,-0.141159698,3.32486974,2.356540909,0.625726039
1.64617E+18,9.404725098,2.845345007,1.228949674,-0.263050779,3.110546772,2.165443922,0.591697691
1.64617E+18,9.414707275,2.751144044,1.140043895,-0.285282557,2.991634966,2.019227683,0.515887668
1.64617E+18,9.424688232,2.581012518,0.934867359,-0.36036717,2.768657995,1.922159741,0.402691702
1.64617E+18,9.434670166,2.308562189,0.726693395,-0.320598128,2.441377855,1.88002111,0.326804267
1.64617E+18,9.444651123,2.099077143,0.427921461,-0.115803358,2.145379231,1.89959463,0.36362699
1.64617E+18,9.454633301,1.825197073,-0.001059738,0.172894049,1.833367893,1.97226427,0.464192454
1.64617E+18,9.464615234,1.554393927,-0.445364763,0.44828993,1.677931498,2.096872434,0.566219162
1.64617E+18,9.474596191,1.303497258,-0.892097308,0.655762175,1.710253414,2.276333528,0.678301925
1.64617E+18,9.484578125,0.862915053,-1.138714692,0.629797056,1.561389724,2.509367819,0.827650997
1.64617E+18,9.494559326,0.349713601,-1.292908059,0.452992263,1.41389987,2.805684843,0.955738503
1.64617E+18,9.50454126,-0.051043374,-1.620581094,0.297123802,1.648384379,3.146412788,1.004915823
1.64617E+18,9.514522217,-0.366209978,-1.984218591,0.114141051,2.020955553,3.485782466,1.014707337
1.64617E+18,9.52450415,-0.597921469,-2.269837614,0.003386135,2.347271681,3.80336666,1.003472328
1.64617E+18,9.534486328,-0.800309836,-2.511466104,-0.080046473,2.637113054,4.10361861,0.971559108
1.64617E+18,9.544467041,-1.119901271,-2.632582546,-0.253275965,2.872075632,4.394394815,0.923057134
1.64617E+18,9.554448975,-1.583465123,-2.628712427,-0.255966008,3.079449531,4.679370444,0.845746251
1.64617E+18,9.564429932,-2.218790148,-2.669841725,-0.086408556,3.47254244,4.937762211,0.699550344
1.64617E+18,9.574411865,-2.895641362,-2.814872712,0.134801196,4.040596323,5.106333672,0.501127974
1.64617E+18,9.584392822,-3.403759226,-2.950101851,0.427744168,4.524559965,5.136694899,0.441261028
1.64617E+18,9.594375,-3.781734461,-2.895441456,0.747444507,4.821179321,5.026613289,0.662225447
1.64617E+18,9.604355957,-4.133922344,-2.679178293,1.074835875,5.04208116,4.793337674,1.012000803
1.64617E+18,9.614337891,-4.446190888,-2.33666191,1.333454882,5.196797496,4.465685957,1.351792881
1.64617E+18,9.624319824,-4.820587096,-1.88774676,1.348561411,5.349791179,4.100362687,1.579338375
1.64617E+18,9.634301025,-5.225563734,-1.358255561,1.262642247,5.544875107,3.738940945,1.663369934
1.64617E+18,9.644282959,-5.525660195,-0.901615955,1.180478124,5.72183192,3.385328592,1.617087984
1.64617E+18,9.654263916,-5.510570178,-0.620661125,1.149836536,5.663367195,3.037107557,1.441892969
1.64617E+18,9.66424585,-5.040146377,-0.287229673,1.059263627,5.158257052,2.714698736,1.149401505
1.64617E+18,9.674227051,-4.23665265,0.06506167,0.958482993,4.344208599,2.459911289,0.812525469
1.64617E+18,9.684208984,-3.282610635,0.289869081,0.928690132,3.423743861,2.297641396,0.534464082
1.64617E+18,9.694189941,-2.243992979,0.488413047,0.958226534,2.488423172,2.229712821,0.41736244
1.64617E+18,9.704171875,-1.239381052,0.775770438,0.989611561,1.765563991,2.249524946,0.433561175
1.64617E+18,9.714154053,-0.361316945,1.059635895,1.062644867,1.543564796,2.333093219,0.412238567
1.64617E+18,9.72413501,0.265733588,1.292649701,1.127234974,1.73557376,2.422647739,0.317346918
1.64617E+18,9.734116943,0.679774408,1.424880243,1.242057139,2.008751575,2.4728617,0.23323943
1.64617E+18,9.7440979,0.944862684,1.409251296,1.461899475,2.239621571,2.486307721,0.208678992
1.64617E+18,9.754079834,1.100206975,1.3882617,1.677008061,2.439278986,2.477584386,0.220308064
1.64617E+18,9.764061035,1.139429562,1.509896613,1.79889125,2.610382585,2.446869464,0.243678878
1.64617E+18,9.774042969,1.138366902,1.692301345,1.801902268,2.72150966,2.410213707,0.243895063
1.64617E+18,9.78402417,1.077583055,1.881678254,1.682305583,2.744458119,2.387312621,0.22348805
1.64617E+18,9.794005859,0.999735845,2.004154879,1.483715732,2.686544419,2.396313641,0.238967406
1.64617E+18,9.803988037,0.949126186,2.085154416,1.231980128,2.601246718,2.447094285,0.331345284
1.64617E+18,9.813968994,0.903745076,2.070921308,0.918578999,2.439110002,2.522759024,0.429702081
1.64617E+18,9.823950928,0.906903248,1.965399909,0.567530423,2.23771336,2.616504096,0.498049955
1.64617E+18,9.833931885,0.967187913,1.896792821,0.245114871,2.143211787,2.721196731,0.517093307
1.64617E+18,9.843913818,1.085283546,1.858162939,-0.046531376,2.15238822,2.822439323,0.492547116
1.64617E+18,9.85389502,1.279188162,1.683822855,-0.272755522,2.132129765,2.908865688,0.440463561
1.64617E+18,9.863876953,1.574375808,1.529323198,-0.466113829,2.243825022,2.989052098,0.356804654
1.64617E+18,9.873858154,1.986740219,1.386298875,-0.586164652,2.4924988,3.052399729,0.262695875
1.64617E+18,9.883839844,2.466483053,1.314493284,-0.471995142,2.83446832,3.08701383,0.202562119
1.64617E+18,9.893822021,2.886391303,1.300041565,-0.427217258,3.194350859,3.076703861,0.217245355
1.64617E+18,9.903802979,3.085987993,1.214293372,-0.526898991,3.357894107,3.011204517,0.26532135
1.64617E+18,9.913784912,3.14223595,1.138577914,-0.480786717,3.37656072,2.900045918,0.323305533
1.64617E+18,9.923765869,3.104326198,1.010113447,-0.362887994,3.284639709,2.754975718,0.394561196
1.64617E+18,9.933748047,3.030371904,0.854492677,-0.211512899,3.155637704,2.593844917,0.467607085
1.64617E+18,9.943729004,2.929028668,0.714959118,-0.099060824,3.016651873,2.434135882,0.51843264
1.64617E+18,9.953710938,2.877114356,0.574179359,-0.029172611,2.933993864,2.274349473,0.558928792
1.64617E+18,9.963691895,2.851512882,0.384023867,0.016215514,2.877301338,2.105912185,0.587812936
1.64617E+18,9.973673828,2.826927307,0.250825357,0.058690674,2.838639807,1.939505425,0.581391605
1.64617E+18,9.983656006,2.727107919,0.13797873,0.064952657,2.731368628,1.782513446,0.52680239
1.64617E+18,9.993636963,2.539269472,0.020959786,0.002707505,2.539357417,1.661049429,0.424026888
1.64617E+18,10.0036189,2.245369528,-0.047251581,-0.044532239,2.246308115,1.583779248,0.312731346
1.64617E+18,10.01359985,1.923762661,-0.089686701,-0.005035072,1.925858726,1.568522427,0.282275862
1.64617E+18,10.02358203,1.662652641,-0.174675599,0.071509531,1.673331702,1.627928715,0.392297937
1.64617E+18,10.03356299,1.510693901,-0.328982364,0.196581726,1.558547347,1.748574083,0.543921627
1.64617E+18,10.04354492,1.322908645,-0.440433737,0.262468303,1.418787782,1.908757031,0.682568562
1.64617E+18,10.05352588,1.089015718,-0.583148263,0.188508602,1.249620992,2.113139365,0.800978757
1.64617E+18,10.06350781,0.895551832,-0.816921948,0.050611558,1.21323373,2.349073875,0.85737112
1.64617E+18,10.07348999,0.633768443,-1.083933301,-0.181869894,1.268720024,2.587358935,0.839521109
1.64617E+18,10.08347095,0.30142391,-1.407951904,-0.476739195,1.516728452,2.800895332,0.742981173
1.64617E+18,10.09345288,-0.049998833,-1.614441861,-0.715646297,1.766655605,2.961109988,0.609553064
1.64617E+18,10.10343384,-0.526719689,-1.795576426,-0.939264864,2.093739912,3.072410067,0.46600276
1.64617E+18,10.11341602,-1.179700782,-1.977019035,-1.024551941,2.519921602,3.176146893,0.333109985
1.64617E+18,10.12339697,-1.783521831,-2.042916864,-0.968867609,2.879785388,3.29422583,0.285435124
1.64617E+18,10.13337891,-2.137349882,-2.149911258,-0.893083835,3.160376824,3.426033226,0.35857954
1.64617E+18,10.14335986,-2.544013451,-2.174126831,-0.889294014,3.462611119,3.544586644,0.438274519
1.64617E+18,10.15334204,-2.728384515,-2.094756357,-1.092039377,3.608966092,3.609728059,0.468609844
1.64617E+18,10.163323,-2.670200037,-2.049400381,-1.265627254,3.596084329,3.604339365,0.468897367
1.64617E+18,10.17330493,-2.502797059,-1.862349869,-1.362148184,3.404083993,3.511002405,0.547550759
1.64617E+18,10.18328687,-2.356674186,-1.572184435,-1.304493868,3.118875016,3.34900453,0.755408994
1.64617E+18,10.19326782,-2.469929978,-1.015636009,-1.07719559,2.879656393,3.168663234,0.972806919
1.64617E+18,10.20325,-3.027328299,-0.336681686,-0.725098089,3.131108178,2.999558406,1.140818212
1.64617E+18,10.21323096,-3.67442501,0.222297182,-0.380061101,3.700710963,2.815090979,1.248674089
1.64617E+18,10.22321289,-4.157314325,0.571511601,-0.110159872,4.197859348,2.588252865,1.272989403
1.64617E+18,10.23319385,-4.273496234,0.787926155,0.057834313,4.345911009,2.318609804,1.186098648
1.64617E+18,10.24317603,-3.984607981,1.018873676,0.099997813,4.114025266,2.037594116,0.989015404
1.64617E+18,10.25315698,-3.360377181,1.152956568,0.130935607,3.555079152,1.787883785,0.708756724
1.64617E+18,10.26313916,-2.399295184,1.14457277,0.152923238,2.662714728,1.607034179,0.396865396
1.64617E+18,10.27312085,-1.335423259,1.172664892,0.156631043,1.784105242,1.520557208,0.20548097
1.64617E+18,10.28310181,-0.455443674,1.220982641,0.17947951,1.315462065,1.519420823,0.204046728
1.64617E+18,10.29308398,0.193603002,1.160819556,0.166748532,1.188608109,1.566866208,0.20625432
1.64617E+18,10.30306494,0.630158436,1.116272559,0.108388771,1.28643391,1.641031916,0.189573878
1.64617E+18,10.31304688,0.838553349,1.16108376,0.016777386,1.432329815,1.728183389,0.206129064
1.64617E+18,10.32302783,0.738781893,1.303766723,-0.093176881,1.501428747,1.837365702,0.291842824
1.64617E+18,10.33301001,0.351645446,1.487330561,-0.150778006,1.535754123,1.974556919,0.402976308
1.64617E+18,10.34299097,-0.071105919,1.607574313,-0.158383659,1.616921954,2.142138171,0.51775568
1.64617E+18,10.35297314,-0.302203662,1.711430409,-0.173871863,1.746583099,2.328633693,0.620640974
1.64617E+18,10.36295386,-0.242312965,1.773092207,-0.173305333,1.797945018,2.521529481,0.703934703
1.64617E+18,10.37293604,0.035084173,1.769993072,-0.092226156,1.772741391,2.72921606,0.763655641
1.64617E+18,10.38291797,0.429070631,1.737089751,0.047080462,1.789915914,2.957911394,0.785112319
1.64617E+18,10.39289893,0.930267172,1.665356055,0.295154036,1.930265191,3.197453215,0.757136963
1.64617E+18,10.40288086,1.399227915,1.549472837,0.545928101,2.157948638,3.429363078,0.68523663
1.64617E+18,10.41286182,1.90134274,1.478819338,0.754544402,2.524152948,3.634353855,0.571387556
1.64617E+18,10.42284399,2.401187866,1.3381974,0.836428466,2.873340917,3.779354863,0.440171408
1.64617E+18,10.43282495,2.848063034,1.211432138,0.857396874,3.211566638,3.842682384,0.339253605
1.64617E+18,10.44280688,3.227857885,1.017771268,0.817645294,3.481877181,3.812677145,0.401334519
1.64617E+18,10.45278784,3.50955009,0.853677269,0.681098204,3.675540977,3.688295899,0.618543668
1.64617E+18,10.46277002,3.768454124,0.730012311,0.52914487,3.874810802,3.462686056,0.920027037
1.64617E+18,10.47275098,3.996330567,0.584917611,0.410286144,4.059694734,3.144925833,1.221998396
1.64617E+18,10.48273315,4.142271654,0.499127918,0.330875484,4.185334123,2.795103058,1.398087929
1.64617E+18,10.49271484,4.21701213,0.414872595,0.319033363,4.249363819,2.462321744,1.423395462
1.64617E+18,10.5026958,4.18477341,0.374721201,0.230891992,4.207856412,2.157387447,1.331562291
1.64617E+18,10.51267798,3.952531757,0.400148488,0.106515963,3.974163026,1.888838877,1.149270258
1.64617E+18,10.52265894,3.485101293,0.384119144,0.05364815,3.506616127,1.684493412,0.918902978
1.64617E+18,10.53264087,2.890013585,0.344778483,0.07657982,2.911514244,1.576166448,0.745134363
1.64617E+18,10.54262256,2.227012033,0.219458159,0.034485038,2.238064721,1.573893612,0.741081411
1.64617E+18,10.55260449,1.41892338,0.030831192,0.02287015,1.419442554,1.671623357,0.874631427
1.64617E+18,10.56258569,0.655643006,-0.235306885,-0.029371933,0.697208572,1.865715108,1.003061402
1.64617E+18,10.57256738,0.151070851,-0.523375055,-0.136019559,0.561466981,2.141408154,1.022689505
1.64617E+18,10.58254858,-0.198829212,-0.78284666,-0.288028276,0.857520983,2.436556991,0.947245347
1.64617E+18,10.59253052,-0.486661235,-0.98376963,-0.485188824,1.200020848,2.720346657,0.851982814
1.64617E+18,10.6025127,-0.76609134,-1.13864338,-0.658944532,1.522370712,2.985778875,0.743556437
1.64617E+18,10.61249365,-1.143530568,-1.331432144,-0.804525408,1.930708379,3.214646673,0.595354001
1.64617E+18,10.62247559,-1.570832436,-1.616903282,-0.889222922,2.423346482,3.401001349,0.434123445
1.64617E+18,10.63245654,-1.966027686,-1.915272481,-0.900860899,2.888785886,3.540171509,0.301093669
1.64617E+18,10.64243848,-2.251469598,-2.076058086,-0.979500574,3.215362173,3.643136722,0.227889873
1.64617E+18,10.65241968,-2.442386722,-2.079441591,-1.001343865,3.360360065,3.736711946,0.225127738
1.64617E+18,10.66240137,-2.671766556,-2.006395936,-0.87585118,3.454139035,3.836867605,0.256076866
1.64617E+18,10.67238257,-2.873874351,-1.917168085,-0.63731313,3.512955349,3.923217757,0.258041002
1.64617E+18,10.6823645,-3.078471041,-2.000392604,-0.421375181,3.695417644,3.954236761,0.223143236
1.64617E+18,10.69234668,-3.270145121,-2.031114782,-0.191530215,3.85434303,3.876871872,0.379088198
1.64617E+18,10.70232764,-3.312737478,-1.884024525,0.017722631,3.811048688,3.668850543,0.736570895
1.64617E+18,10.71230957,-3.350048095,-1.768375992,0.215397778,3.794255143,3.368392593,1.126748584
1.64617E+18,10.72229053,-3.448634141,-1.58749657,0.375990783,3.815048082,3.093449263,1.309859057
1.64617E+18,10.73227271,-3.706037123,-1.178231587,0.480848895,3.918438016,2.878427828,1.349637092
1.64617E+18,10.74225366,-4.043531294,-0.707776513,0.616974837,4.151114413,2.69027809,1.322409886
1.64617E+18,10.75223535,-4.272516575,-0.328108211,0.815023932,4.361916654,2.487916854,1.235348229
1.64617E+18,10.76221655,-4.217702451,-0.056789809,0.92183559,4.317640548,2.259189916,1.067549008
1.64617E+18,10.77219849,-3.705809159,0.164217626,0.925446766,3.82314539,2.038420425,0.81818531
1.64617E+18,10.78217969,-2.78310687,0.315709917,0.831490279,2.92176876,1.87129173,0.5694363
1.64617E+18,10.79216162,-1.568968396,0.433723133,0.705520186,1.774129735,1.798997976,0.468411491
1.64617E+18,10.80214258,-0.293697115,0.477419652,0.579831905,0.806469192,1.835876586,0.479390654
1.64617E+18,10.81212451,0.733192694,0.555603838,0.495364035,1.044821841,1.962869354,0.336905445
1.64617E+18,10.82210669,1.458826351,0.673063804,0.436442621,1.664833736,2.064130987,0.140941701
1.64617E+18,10.83208765,1.816816198,0.759583273,0.520902381,2.036940632,2.095711325,0.060170912
1.64617E+18,10.84206958,1.876961747,0.736182524,0.679201649,2.127502054,2.083288321,0.080434663
1.64617E+18,10.85205054,1.647900478,0.86162852,0.919881314,2.074647277,2.07717408,0.079155061
1.64617E+18,10.86203247,1.355482297,1.03265904,1.24424822,2.109945635,2.092070952,0.09048476
1.64617E+18,10.87201367,1.06354167,1.090190023,1.520151173,2.151858443,2.104356122,0.099925009
1.64617E+18,10.88199536,0.803762022,1.265453066,1.608556456,2.198831217,2.121817346,0.119949798
1.64617E+18,10.89197656,0.501073791,1.487061681,1.459335762,2.14291583,2.15848637,0.179269507
1.64617E+18,10.9019585,0.192320561,1.75519707,1.092574945,2.07639687,2.231475689,0.27894723
1.64617E+18,10.9119397,-0.07977847,1.915039257,0.747871573,2.057438176,2.339498247,0.386429028
1.64617E+18,10.92192163,-0.187273215,1.929775053,0.404747287,1.980637115,2.471946812,0.48217641
1.64617E+18,10.93190259,-0.013147066,1.912578419,0.018241394,1.912710591,2.629390588,0.548528638
1.64617E+18,10.94188452,0.323571444,2.019370569,-0.295442424,2.066359649,2.804052069,0.570167154
1.64617E+18,10.9518667,0.678320117,2.07128488,-0.440600545,2.223615991,2.963307983,0.564259548
1.64617E+18,10.96184766,1.0624416,1.901517512,-0.490747335,2.232797337,3.100859063,0.534023098
1.64617E+18,10.97182935,1.465633693,1.714956245,-0.568602509,2.326470687,3.228548187,0.458516301
1.64617E+18,10.98181055,1.947884711,1.561568933,-0.590887406,2.565521449,3.3349501,0.346646734
1.64617E+18,10.99179248,2.416646716,1.444766846,-0.570525294,2.872809026,3.400590048,0.240688325
1.64617E+18,11.00177368,2.791305958,1.34092361,-0.612209303,3.156622453,3.409132426,0.222644582
1.64617E+18,11.01175562,3.091117757,1.205209318,-0.655644906,3.381923821,3.359236591,0.311729612
1.64617E+18,11.02173657,3.337342342,1.041178447,-0.645485039,3.55507488,3.255008579,0.436139162
1.64617E+18,11.03171851,3.486902789,0.931201822,-0.604180822,3.659325397,3.100993651,0.557918784
1.64617E+18,11.04169946,3.507577328,0.860492209,-0.586635448,3.658918789,2.907474733,0.657437453
1.64617E+18,11.05168164,3.478523083,0.807404762,-0.449097301,3.599126794,2.688066698,0.731940742
1.64617E+18,11.06166357,3.4328766,0.676913758,-0.273970634,3.509688575,2.454410907,0.775463457
1.64617E+18,11.07164453,3.343953869,0.517566076,-0.213351951,3.390489814,2.227506978,0.765388014
1.64617E+18,11.08162646,3.188821175,0.378091555,-0.263136448,3.221920933,2.04485155,0.679143288
1.64617E+18,11.09160767,2.937450459,0.245178876,-0.249826848,2.958232806,1.926747273,0.555643169
1.64617E+18,11.1015896,2.653935131,0.048849079,-0.131987015,2.657664103,1.882148274,0.484390878
1.64617E+18,11.11157056,2.333777879,-0.165303959,-0.009382855,2.339643696,1.906303068,0.526640732
1.64617E+18,11.12155249,1.983956725,-0.339159474,0.093871001,2.014925607,1.999371699,0.660278146
1.64617E+18,11.13153369,1.629952149,-0.556300004,0.080199691,1.724136216,2.173811915,0.845729381
1.64617E+18,11.14151563,1.231855333,-0.790541306,0.05769348,1.46483844,2.419194631,1.018080052
1.64617E+18,11.15149658,0.761767047,-1.005799675,0.046455973,1.26256888,2.716874771,1.125087736
1.64617E+18,11.16147852,0.165659349,-1.229417292,0.017342107,1.240649284,3.043291029,1.129306159
1.64617E+18,11.17146069,-0.459097521,-1.49499715,0.010359938,1.56393553,3.352605291,1.010566482
1.64617E+18,11.18144165,-1.111389463,-1.710048599,0.075702891,2.040878163,3.587797628,0.82323793
1.64617E+18,11.19142358,-1.726364358,-1.820053865,0.135771868,2.512242817,3.726134183,0.649586555
1.64617E+18,11.20140454,-2.215377125,-1.865840049,0.127183268,2.899212044,3.804020535,0.536160523
1.64617E+18,11.21138647,-2.705773455,-1.835026101,0.080793639,3.270330013,3.90760307,0.443381852
1.64617E+18,11.22136768,-3.289523191,-1.819774171,0.00209858,3.759327767,4.071294376,0.478653259
1.64617E+18,11.23134961,-3.684808457,-1.964581871,-0.134099478,4.177963375,4.222045306,0.582737518
1.64617E+18,11.24133081,-3.830427473,-2.235315459,-0.243628066,4.441639839,4.28248066,0.605909802
1.64617E+18,11.2513125,-3.793608439,-2.446381345,-0.339191696,4.526731456,4.205656304,0.629118367
1.64617E+18,11.26129346,-3.555205341,-2.429095863,-0.491691557,4.33379191,3.987138407,0.827779698
1.64617E+18,11.27127563,-3.181406515,-2.194801078,-0.628849546,3.915858901,3.695850976,1.116648072
1.64617E+18,11.28125757,-2.899792052,-1.717399254,-0.605962737,3.424243709,3.43673949,1.318005546
1.64617E+18,11.29123853,-3.073465196,-1.048413951,-0.534809107,3.291106334,3.27285334,1.408176985
1.64617E+18,11.30122046,-3.896521116,-0.284252118,-0.469939598,3.935037395,3.171195433,1.43953474
1.64617E+18,11.31120166,-4.890507604,0.259513983,-0.310841581,4.907243077,3.04077934,1.423411717
1.64617E+18,11.32118359,-5.234079634,0.527594134,-0.256178628,5.266837065,2.826422848,1.280414787
1.64617E+18,11.33116479,-4.721694175,0.740721044,-0.165805479,4.782316908,2.557545672,0.988824091
1.64617E+18,11.34114648,-3.570969312,0.841373667,-0.184685682,3.673396286,2.296684057,0.655360426
1.64617E+18,11.35112769,-2.134885538,0.894825564,-0.352730757,2.341552484,2.113562813,0.476536762
1.64617E+18,11.36110962,-0.840968009,0.977829718,-0.59634611,1.420917603,2.053983957,0.481526032
1.64617E+18,11.37109058,0.297108969,0.985215737,-0.83427991,1.324744034,2.096265843,0.440933851
1.64617E+18,11.38107251,1.220977965,0.85550916,-0.982296561,1.785382213,2.16345701,0.362457772
1.64617E+18,11.39105347,1.849575143,0.76205697,-1.082504145,2.27452726,2.202147188,0.339988886
1.64617E+18,11.40103564,2.206474856,0.814961461,-1.178481031,2.630876473,2.203065572,0.340195501
1.64617E+18,11.41101758,2.277553887,0.970856956,-1.228048049,2.763678156,2.172135764,0.312855619
1.64617E+18,11.42099854,2.007005008,1.160427927,-1.127722758,2.578065301,2.135051526,0.257647058
1.64617E+18,11.43098047,1.485524973,1.342156367,-0.846644448,2.173700757,2.132585273,0.253478955
1.64617E+18,11.44096167,1.017336384,1.4539567,-0.494649311,1.842183851,2.202282524,0.337197588
1.64617E+18,11.4509436,0.685640669,1.595305198,-0.18052659,1.745763917,2.345416108,0.441591205
1.64617E+18,11.4609248,0.317258608,1.81147133,0.131463941,1.84373647,2.529165633,0.527736841
1.64617E+18,11.47090649,0.072746087,1.949977883,0.422999129,1.996655705,2.728875118,0.603065227
1.64617E+18,11.48088745,-0.052319385,2.067582519,0.664216043,2.172283992,2.932887792,0.662958617
1.64617E+18,11.49086963,-0.022798692,2.103345906,0.889242722,2.283711102,3.119643059,0.685068145
1.64617E+18,11.50085059,0.188902862,2.016962923,1.133976412,2.321578391,3.284367452,0.66191293
1.64617E+18,11.51083252,0.633899376,1.878075261,1.340398417,2.39283577,3.436872779,0.594801378
1.64617E+18,11.52081348,1.244249535,1.707199639,1.434286661,2.553402777,3.566691514,0.484142217
1.64617E+18,11.53079565,2.001583568,1.531860608,1.37398373,2.870673264,3.656050277,0.353788252
1.64617E+18,11.54077808,2.75395501,1.291265553,1.210081088,3.27351969,3.677672207,0.308886654
1.64617E+18,11.55075903,3.275778159,1.078805875,0.972214801,3.58325917,3.616578724,0.422356315
1.64617E+18,11.56074097,3.636877662,1.011877534,0.707961807,3.840831315,3.478955627,0.598345209
1.64617E+18,11.57072192,3.88350849,0.965001216,0.531739563,4.036782444,3.277795321,0.75935246
1.64617E+18,11.5807041,3.927978915,0.855050895,0.400187286,4.039836662,3.032816937,0.863061388
1.64617E+18,11.59068506,3.854764042,0.714738169,0.286968757,3.930955041,2.774201777,0.908817931
1.64617E+18,11.60066699,3.797597216,0.585929418,0.177530842,3.846631656,2.533834323,0.888733354
1.64617E+18,11.61064795,3.661523443,0.463422983,0.046226329,3.691023118,2.320618914,0.799485478
1.64617E+18,11.62063013,3.434695047,0.281755917,-0.072294106,3.446990412,2.135421465,0.663527815
1.64617E+18,11.63061108,3.077709409,0.069178166,-0.227650672,3.086892556,1.98758028,0.499173807
1.64617E+18,11.64059302,2.635081962,-0.107446229,-0.366273837,2.662584865,1.898775812,0.353416054
1.64617E+18,11.65057397,2.141418739,-0.326981545,-0.422353306,2.207028197,1.882820612,0.320656469
1.64617E+18,11.66055591,1.661337467,-0.618587241,-0.450980777,1.829228257,1.947507581,0.427111484
1.64617E+18,11.67053809,1.231415772,-0.884210354,-0.469416451,1.586998601,2.094762694,0.58544544
1.64617E+18,11.68051904,0.833292068,-1.112008471,-0.426921271,1.45368507,2.328062002,0.77180402
1.64617E+18,11.69050098,0.47463762,-1.420098269,-0.301041121,1.527280498,2.648395941,0.979296034
1.64617E+18,11.70048193,0.198707632,-1.692906325,-0.184436384,1.714477567,3.017792066,1.165688979
1.64617E+18,11.71046411,-0.036226913,-1.833099809,-0.143291815,1.839048625,3.385359016,1.271483107
1.64617E+18,11.72044507,-0.275642988,-1.946884009,-0.094684527,1.968578564,3.714507487,1.254506409
1.64617E+18,11.730427,-0.601695143,-2.114347777,0.049278775,2.198847872,3.979242582,1.131428764
1.64617E+18,11.74040796,-1.096125258,-2.242842639,0.182592035,2.503032868,4.171515637,0.963435279
1.64617E+18,11.75039014,-1.714391597,-2.263197737,0.289016666,2.853897892,4.320884416,0.794083345
1.64617E+18,11.76037109,-2.462858432,-2.15876881,0.419276346,3.301779382,4.454032389,0.632037372
1.64617E+18,11.77035303,-3.288402078,-2.064911838,0.537480883,3.919991687,4.569062076,0.503459128
1.64617E+18,11.78033398,-4.110937189,-2.106427798,0.592481324,4.657024454,4.607359335,0.465785337
1.64617E+18,11.79031592,-4.646089776,-2.298180496,0.627360841,5.221241751,4.513691751,0.535363899
1.64617E+18,11.8002981,-4.780419336,-2.409310382,0.629682343,5.390147066,4.273136664,0.68337819
1.64617E+18,11.81027905,-4.531566156,-2.304626019,0.689912575,5.130533332,3.934415465,0.861907188
1.64617E+18,11.82026099,-4.12557654,-1.943488229,0.713636492,4.615929519,3.595679323,0.982459599
1.64617E+18,11.83024194,-3.789712016,-1.418733995,0.782742176,4.121578415,3.323743879,1.037247536
1.64617E+18,11.84022412,-3.826686533,-0.80771076,0.823316179,3.996720658,3.125903755,1.054732913
1.64617E+18,11.85020508,-4.082013293,-0.245555016,0.891210442,4.185377622,2.947442587,1.043208038
1.64617E+18,11.86018701,-4.309802642,0.253757611,1.087286191,4.452076257,2.749606831,0.975047825
1.64617E+18,11.87016797,-4.077053625,0.634593204,1.220830373,4.30296428,2.532152995,0.797418826
1.64617E+18,11.8801499,-3.376070425,0.929808615,1.256422788,3.720348612,2.336754004,0.536166204
1.64617E+18,11.8901311,-2.256141681,1.220594518,1.161072289,2.815690879,2.203396657,0.280190691
1.64617E+18,11.90011304,-1.010088312,1.465777486,0.918132278,2.002935075,2.157624386,0.203249936
1.64617E+18,11.91009424,-0.040575756,1.62621004,0.626452567,1.743171909,2.188998274,0.201154204
1.64617E+18,11.92007593,0.706587596,1.724469338,0.352046209,1.896575088,2.24374148,0.136464107
1.64617E+18,11.93005811,1.232326457,1.732185027,0.272240559,2.143177171,2.283155981,0.072368489
1.64617E+18,11.94003906,1.47283851,1.618409011,0.3239215,2.21210898,2.288396479,0.06338175
1.64617E+18,11.950021,1.486081438,1.557078636,0.48785819,2.207020057,2.289793373,0.061819714
1.64617E+18,11.96000195,1.393594878,1.649499145,0.724033675,2.277537898,2.314430251,0.072151969
1.64617E+18,11.96998413,1.403176945,1.658426548,0.893530337,2.348974376,2.353896935,0.127720168
1.64617E+18,11.97996509,1.372179749,1.699183506,0.96259737,2.386775136,2.40211943,0.191745576
1.64617E+18,11.98994702,1.19266314,1.780009439,0.984446506,2.35796817,2.463976081,0.263257061
1.64617E+18,11.99992822,0.965351345,1.893754476,0.921286578,2.316673951,2.545207802,0.333870038
1.64617E+18,12.00990991,0.693431762,2.050883897,0.748260792,2.290603977,2.650909382,0.404613199
1.64617E+18,12.01989111,0.620967414,2.131244551,0.565327068,2.290720096,2.774237803,0.460140351
1.64617E+18,12.02987305,0.840385826,1.997292008,0.353775736,2.195582149,2.901497988,0.484169834
1.64617E+18,12.03985425,1.23037357,1.85142457,-0.117604635,2.226077921,3.03324808,0.45236518
1.64617E+18,12.04983594,1.600837698,1.76505094,-0.583978284,2.453388838,3.149540719,0.372309228
1.64617E+18,12.05981689,1.919174749,1.639067183,-0.878012084,2.672204739,3.219620474,0.291963016
1.64617E+18,12.06979907,2.20061444,1.41925948,-1.076423802,2.831199319,3.237660715,0.261572996
1.64617E+18,12.07978003,2.495283615,1.166042259,-1.20249056,3.005341647,3.210742376,0.311166092
1.64617E+18,12.08976196,2.759720149,0.896452581,-1.277116616,3.170285378,3.136491629,0.420648562
1.64617E+18,12.0997439,2.997229513,0.670104662,-1.396193954,3.373689756,3.016452799,0.546366154
1.64617E+18,12.1097251,3.152581987,0.45349254,-1.507766323,3.523888187,2.84348064,0.666487952
1.64617E+18,12.11970703,3.222819306,0.221634334,-1.503854118,3.563321943,2.620556699,0.76687918
1.64617E+18,12.12968823,3.197304926,0.030189387,-1.455363351,3.513083072,2.371445507,0.822742002
1.64617E+18,12.13966992,3.090762952,-0.080723642,-1.387810595,3.389004305,2.115922929,0.825289129
1.64617E+18,12.14965112,2.888902994,-0.108403968,-1.261499068,3.154186397,1.861199787,0.785169077
1.64617E+18,12.15963306,2.645864637,-0.070166884,-1.063881789,2.852607146,1.616711192,0.722649001
1.64617E+18,12.16961401,2.405789807,-0.035324704,-0.880257452,2.562015927,1.396374307,0.643839838
1.64617E+18,12.17959595,2.16520235,0.005702011,-0.657483666,2.262834175,1.227973928,0.526468369
1.64617E+18,12.1895769,1.93485864,-0.001429156,-0.369884465,1.969897083,1.134269974,0.402804952
1.64617E+18,12.19955908,1.639733538,-0.060635086,-0.101136681,1.643968162,1.123488277,0.381154926
1.64617E+18,12.20954004,1.293365156,-0.054839259,0.017739326,1.294648776,1.189711576,0.503671117
1.64617E+18,12.21952222,1.071305874,0.00362462,0.04387403,1.072210028,1.311396306,0.642252027
1.64617E+18,12.22950391,0.951374842,-0.015479309,0.110167544,0.957857289,1.47353415,0.75599173
1.64617E+18,12.23948511,0.806216429,-0.080081252,0.228437438,0.841772892,1.676305456,0.855827306
1.64617E+18,12.24946704,0.563719925,-0.172704299,0.394335126,0.709300444,1.92486333,0.934671198
1.64617E+18,12.25944824,0.1759218,-0.332520182,0.529142898,0.64923829,2.217732525,0.966208926
1.64617E+18,12.26942993,-0.306255568,-0.511734594,0.644391617,0.878012143,2.530007602,0.91191989
1.64617E+18,12.27941089,-0.81881463,-0.75357468,0.72069357,1.325794637,2.816175212,0.789385717
1.64617E+18,12.28939307,-1.350299341,-1.002286991,0.79965919,1.862080112,3.048720064,0.64549448
