time,seconds_elapsed,z,y,x
1646167789554002200,0.032002197265625,-0.173937932279706,-1.5273787863656878,0.016947335408627986
1646167789563984100,0.041984130859375,-0.01004383963048458,-1.49307728831321,-0.18591226504873484
1646167789573965300,0.05196533203125,0.28049510372579095,-1.4846581272751092,-0.3998424543684348
1646167789583947300,0.061947265625,0.5407125585764646,-1.580514456486702,-0.4975652715716511
1646167789593928400,0.071928466796875,0.6792050834655762,-1.5164038033649325,-0.45113983967900273
1646167789603910100,0.08191015625,0.7431120307087897,-1.3213707683473825,-0.3771201888201758
1646167789613891000,0.09189111328125,0.6238263105928897,-1.1417965837463735,-0.4775992093963548
1646167789623873300,0.101873291015625,0.28938334358036516,-0.8816092317730188,-0.5110404373576865
1646167789633854200,0.111854248046875,-0.1565700333714485,-0.8272875667378305,-0.1220925576975569
1646167789643836200,0.121836181640625,-0.8065472687870263,-0.6636012716203927,0.07052424649111926
1646167789653817000,0.131817138671875,-1.429596165266633,-0.2828317299798131,0.24151158533692357
1646167789663799300,0.14179931640625,-1.9631793103545903,0.1221735505118966,0.4061416641104966
1646167789673780200,0.1517802734375,-2.307175118610263,0.4649564758464694,0.36386779893934723
1646167789683762400,0.161762451171875,-2.374046176356077,0.6433128090903163,0.2628624894667417
1646167789693744000,0.171744140625,-2.128775530746579,0.8465624683111905,0.19307649412229655
1646167789703725300,0.181725341796875,-1.6244307551026342,0.9328495896667242,0.16571502446606753
1646167789713707300,0.191707275390625,-0.8513643156349658,0.6169529176920652,-0.021617957568168637
1646167789723688200,0.201688232421875,0.23107962317168712,0.12461042226999998,-0.3163298757601529
1646167789733670100,0.211670166015625,1.3123533491551875,-0.11449673227369785,-0.5618941705539823
1646167789743651000,0.221651123046875,1.9893284816116092,-0.09968874698132275,-0.8009305248837918
1646167789753633300,0.23163330078125,2.334601470196247,0.05986322481036186,-0.8739647083692252
1646167789763614200,0.2416142578125,2.433737551730871,0.16108897210061549,-0.9210743961989879
1646167789773596200,0.25159619140625,2.2010113303959367,0.13514759837538004,-1.1003767781212925
1646167789783577000,0.2615771484375,1.8322347166270017,0.12760317434519527,-1.3063757360503077
1646167789793559300,0.271559326171875,1.426701612868905,0.2014993084222078,-1.4614339035540818
1646167789803540200,0.281540283203125,1.0091355414897203,0.34058746111690996,-1.5951510307349264
1646167789813522400,0.2915224609375,0.6269435658305883,0.49236821438521144,-1.7067155089490114
1646167789823503400,0.30150341796875,0.24162732067108153,0.5359460748270154,-1.8381259666226804
1646167789833485000,0.311485107421875,-0.19103695111870764,0.6110109604224563,-1.9228610362306235
1646167789843466200,0.32146630859375,-0.6015197862386703,0.7568976872161031,-1.9305489603847263
1646167789853448200,0.3314482421875,-0.8648515737175941,0.887535699212551,-1.767464430552721
1646167789863429400,0.341429443359375,-1.0414163473695517,0.9415826389595866,-1.5128785518482326
1646167789873411000,0.3514111328125,-1.1161924791514872,0.8032263076707721,-1.2442292226083576
1646167789883392300,0.361392333984375,-1.034839307066798,0.5230263874992728,-0.8988497049093246
1646167789893374200,0.371374267578125,-0.654053691074252,0.24881314052194356,-0.6299287191212177
1646167789903355100,0.381355224609375,-0.010248422291874885,-0.03291355082541704,-0.561973446335271
1646167789913337300,0.39133740234375,0.6302379312008619,-0.33379210188835856,-0.5061772517681121
1646167789923318300,0.401318359375,1.0712515136629341,-0.4123240790724754,-0.5334625874482095
1646167789933300200,0.41130029296875,1.4445336221575735,-0.38592707053422926,-0.6521671466752886
1646167789943282200,0.4212822265625,1.8412889606982468,-0.43404286666661496,-0.6168836518481373
1646167789953263400,0.431263427734375,2.036582984739542,-0.47179713552147146,-0.5694700126357376
1646167789963245000,0.4412451171875,2.202745022320747,-0.4958186471000314,-0.526054795409739
1646167789973226200,0.451226318359375,2.370775191861391,-0.5092494988203048,-0.496237895425409
1646167789983208200,0.461208251953125,2.598912331840396,-0.5849670031055808,-0.36184338043965397
1646167789993189400,0.471189453125,2.794038598099351,-0.7714318240031599,-0.18192805425077677
1646167790003171300,0.48117138671875,2.7439211067557334,-0.8995590222224593,-0.07276073683891444
1646167790013152000,0.491152099609375,2.5379718331873415,-0.6983709717065095,-0.19312975867949425
1646167790023134200,0.50113427734375,2.2651064936876297,-0.4575678268998861,-0.3652563306882977
1646167790033115100,0.511115234375,1.9256611883431671,-0.4538701414257288,-0.43109585342928763
1646167790043097300,0.521097412109375,1.5647487320780753,-0.4780728547900915,-0.5642964093901217
1646167790053078500,0.53107861328125,1.2191051566153763,-0.5462821754023433,-0.717615916533023
1646167790063060500,0.541060546875,0.9865081146180629,-0.774348588232696,-0.7013388816013931
1646167790073041400,0.55104150390625,0.7564233477026223,-1.0215268210291861,-0.6719544547501951
1646167790083023600,0.561023681640625,0.5563654702603816,-1.1518205496326088,-0.7164749298043549
1646167790093004500,0.571004638671875,0.18433014695644379,-1.1092577114522457,-0.7655315139181912
1646167790102986500,0.580986572265625,-0.35185821219384666,-1.1884566281124949,-0.8892815930318086
1646167790112967400,0.590967529296875,-0.5436778381228446,-1.4024386937499045,-1.0575533893086015
1646167790122949600,0.60094970703125,-0.5562912359803914,-1.5187167564824222,-1.2243612505126744
1646167790132931600,0.610931640625,-0.6744038206636905,-1.5698790807038545,-1.2924660147719085
1646167790142912500,0.62091259765625,-0.8703297128677367,-1.6706597145751119,-1.3557432858094571
1646167790152894500,0.63089453125,-1.032675991553068,-1.7450310649484395,-1.4632301393210887
1646167790162875400,0.64087548828125,-1.2163450442522763,-1.6908508542105554,-1.3555451328888535
1646167790172857600,0.650857666015625,-1.591155677488446,-1.7816648053407669,-1.2204972685609012
1646167790182838500,0.660838623046875,-2.259309790107608,-1.853333034235239,-1.1345757656473665
1646167790192820500,0.670820556640625,-2.8911615862458944,-1.7772548799440264,-1.1267978251222521
1646167790202801400,0.680801513671875,-3.382961937615275,-1.6793021629750728,-1.1659507817938923
1646167790212783600,0.69078369140625,-3.578718902993202,-1.4974682167485356,-1.2976470706716179
1646167790222764500,0.7007646484375,-3.4164731620728968,-1.3937018450647591,-1.3420219267100095
1646167790232746500,0.71074658203125,-3.1030203761190176,-1.3837573741555214,-1.1426858607362955
1646167790242727400,0.7207275390625,-2.835581153321266,-1.49416829842031,-0.8597764624103903
1646167790252709600,0.730709716796875,-2.6029694982767104,-1.4661311214596031,-0.5488434772577137
1646167790262690600,0.740690673828125,-2.22635093883574,-1.214989830251038,-0.19239267657659948
1646167790272672500,0.750672607421875,-2.174739994063973,-0.826020615541935,0.15967861211234702
1646167790282654500,0.760654541015625,-2.212302539739013,-0.4106044156730175,0.5570175774935633
1646167790292635400,0.770635498046875,-2.170171955496073,0.0754465783894062,0.8705749198004603
1646167790302617600,0.78061767578125,-1.8226035494506359,0.6073898473158479,1.1026831553675234
1646167790312598500,0.7905986328125,-1.3231553136765957,0.8971160129845142,1.1910917989216745
1646167790322580500,0.80058056640625,-0.6843517987042665,0.9327201180681586,1.2540798777543007
1646167790332561400,0.8105615234375,-0.13348024968504904,0.8815618854999542,1.3664191397331655
1646167790342543600,0.820543701171875,0.07865092738866805,0.890958074876666,1.5037920129425824
1646167790352524500,0.830524658203125,0.05061491947174072,1.0893486036285758,1.6187649844259022
1646167790362506800,0.8405068359375,-0.2598573893666267,1.5005211745783686,1.833154315689951
1646167790372487400,0.8504873046875,-0.770568192911148,1.9364409410327672,2.03890368277207
1646167790382469400,0.860469482421875,-1.198760287722945,2.1270716494381428,2.2128243716560303
1646167790392451600,0.87045166015625,-1.289133217087388,2.0015607711970804,2.3933669628977774
1646167790402432500,0.8804326171875,-1.1519979520261288,1.8937731811732053,2.494001174035668
1646167790412414500,0.89041455078125,-0.9309557387441396,1.8643144469767807,2.5380782161712645
1646167790422395400,0.9003955078125,-0.6221440565943718,1.926166799777746,2.428151422161609
1646167790432377600,0.910377685546875,-0.2549684482812881,1.966096659106016,2.3290653172485527
1646167790442358500,0.920358642578125,0.15934826591312884,1.9045710540413856,2.288353367631882
1646167790452340500,0.930340576171875,0.44834991669952867,1.8275205475866794,2.122374723793566
1646167790462321400,0.9403212890625,0.6195154616564512,1.8148013512670993,1.96580483655259
1646167790472303600,0.9503037109375,0.8453840721815824,1.8741776693433523,1.696897294767946
1646167790482285600,0.96028564453125,1.0067869325369596,1.9533371307760476,1.5133015995658934
1646167790492266500,0.9702666015625,1.3198884208351374,1.9639561399459837,1.4711435427941382
1646167790502248400,0.98024853515625,1.6608149046480654,1.6888474054336546,1.382955994644761
1646167790512229400,0.9902294921875,2.1222487593263386,1.5097978292286396,1.1332453207612037
1646167790522211600,1.000211669921875,2.5669611963063477,1.2816256179362535,0.7929395991951227
1646167790532192500,1.010192626953125,2.9180548538684845,1.0006342551261187,0.5739458428755402
1646167790542174500,1.020174560546875,3.1736265287399292,0.7220815176397561,0.4698422020614147
1646167790552155400,1.0301552734375,3.3188755421519276,0.5829460186719894,0.39274288802891966
1646167790562137600,1.0401376953125,3.3702065009385347,0.5303010546773672,0.24644465782493352
1646167790572119600,1.05011962890625,3.4828748487412926,0.5522989514738321,0.06227393921390176
1646167790582100700,1.060100830078125,3.652056526404619,0.5742927566170692,0.03217413063496351
1646167790592082400,1.07008251953125,3.870903275468945,0.5416279198557138,0.09926599152460694
1646167790602063400,1.0800634765625,3.967376859796047,0.47820028056204317,0.1202880290262401
1646167790612045600,1.090045654296875,3.8933600219488143,0.35718846730589865,0.09352598656788468
1646167790622026500,1.100026611328125,3.6324563383996487,0.2724140886008739,0.03695844230204821
1646167790632008400,1.110008544921875,3.16444953507185,0.3659872753113508,0.10731938799023627
1646167790641989400,1.1199892578125,2.6447271575540303,0.553330632609129,0.19710465365983545
1646167790651971600,1.1299716796875,2.301256834477186,0.626748335519433,0.3015203560978174
1646167790661953500,1.13995361328125,2.0657319223344324,0.5024357271522283,0.4373278796866536
1646167790671934700,1.149934814453125,1.883803575822711,0.16556524073183534,0.5239704634163528
1646167790681916400,1.15991650390625,1.7378654111027716,-0.18725100283920765,0.47955169517099855
1646167790691897600,1.169897705078125,1.5850287190407513,-0.5302420179665088,0.299611307606101
1646167790701879600,1.179879638671875,1.397256907197833,-0.9490309091389179,0.09793320855088532
1646167790711860500,1.189860595703125,1.0527028805375098,-1.3989192874521017,-0.015317469184473156
1646167790721842400,1.199842529296875,0.7558791578233242,-1.7442045509964226,0.03858494752533734
1646167790731823400,1.2098232421875,0.3880956467449665,-2.0482342595666645,0.11222381890565156
1646167790741805600,1.2198056640625,-0.17269406969845294,-2.190668215557933,0.09544131866991519
1646167790751787500,1.22978759765625,-0.7932832980662584,-2.0709861896008253,-0.03807202956713736
1646167790761768700,1.239768798828125,-1.4619523744702339,-1.9108622631400822,-0.21686237031407654
1646167790771750400,1.24975048828125,-2.123730522316694,-1.9954899268507957,-0.31418942966535685
1646167790781731600,1.259731689453125,-2.754534855228662,-2.1412410445660353,-0.3458293072931468
1646167790791713500,1.269713623046875,-3.295532660487294,-2.231122683282196,-0.3835707897316664
1646167790801694700,1.27969482421875,-3.521588318017125,-2.38375683850944,-0.5013226148111746
1646167790811676400,1.289676513671875,-3.455512794563174,-2.929405392183363,-0.51675592892766
1646167790821658600,1.29965869140625,-3.2338445583373305,-3.454856668742001,-0.32186920704562216
1646167790831639600,1.3096396484375,-2.9684593454599377,-3.4763986384645102,-0.04692958202250302
1646167790841621500,1.31962158203125,-2.93048412733078,-2.979076601064205,0.19137180909626184
1646167790851602400,1.3296025390625,-3.1267624862343073,-2.2795096975713967,0.32361115534212437
1646167790861584400,1.33958447265625,-3.627620588806271,-1.4475588151976466,0.2258880824105814
1646167790871565600,1.349565673828125,-4.382852680897712,-0.4442722919970751,-0.11261150304898619
1646167790881547500,1.359547607421875,-4.855775897839665,0.42876872565597296,-0.47317529200688
1646167790891529500,1.369529541015625,-4.7611143313705915,0.8834957761719823,-0.9114541157428174
1646167790901510400,1.379510498046875,-4.351038908007741,1.4479004682421683,-1.219942703418061
1646167790911492600,1.38949267578125,-3.1761358812123537,1.7611337662264703,-1.595965415857732
1646167790921473500,1.3994736328125,-1.7169383584082125,1.712060523238778,-1.918203273552656
1646167790931455500,1.40945556640625,-0.45289515891373155,1.45758628821522,-1.797130962280929
1646167790941437400,1.4194375,0.3360159154176712,1.1321712617889046,-1.4740943554237484
1646167790951418400,1.42941845703125,0.9991852253615856,0.9329200245544313,-1.3001703055389224
1646167790961400600,1.439400634765625,1.4212597140759229,0.8023053934335708,-1.2786924870938061
1646167790971381500,1.449381591796875,1.3807523471206427,0.702238168528676,-1.1678691095706075
1646167790981363500,1.459363525390625,1.0644809966146946,0.8581143744170665,-1.1834634229350833
1646167790991344400,1.469344482421875,1.0682803888976573,0.8891501486718654,-1.1569381849072873
1646167791001326600,1.47932666015625,1.135128650289774,1.0316752900779247,-0.9569102642118931
1646167791011308500,1.48930859375,0.8557833011209964,1.4884984360903502,-0.6700907067049294
1646167791021289500,1.49928955078125,0.2926367924183607,1.862253422793746,-0.33050917122755197
1646167791031271400,1.509271484375,-0.15841478445529936,1.9706144287914036,0.052762087568268175
1646167791041252600,1.519252685546875,-0.6732102269649505,1.9954367353588343,0.375510086742416
1646167791051235000,1.529235107421875,-1.0260399145394563,2.039697025106847,0.7047948672741651
1646167791061217000,1.539217041015625,-0.9851461786150931,2.069875013488531,0.9231408272095024
1646167791071198000,1.549197998046875,-0.6478197651207447,2.03322958265841,1.0742383474539965
1646167791081180200,1.55918017578125,-0.02408054828941822,1.953953801369667,1.2158707047387958
1646167791091161000,1.5691611328125,0.7499567820370197,1.8442106933638451,1.3281661275759338
1646167791101143000,1.57914306640625,1.4781173273295163,1.7420789371445775,1.335652830069512
1646167791111124000,1.5891240234375,2.0246634143650533,1.844423751592636,1.0917725428398697
1646167791121106000,1.59910595703125,2.512860772806406,1.8844944806963204,0.8366095218345523
1646167791131088100,1.609088134765625,3.0016069973021744,1.767611730068922,0.5878926082286984
1646167791141069000,1.619069091796875,3.3156793764591215,1.5591139410614967,0.2608051185455173
1646167791151051000,1.629051025390625,3.615222879526019,1.3755243833392858,-0.10759656096380203
1646167791161032000,1.639031982421875,3.7363206174999473,1.1958593055844307,-0.33787363558094946
1646167791171014100,1.64901416015625,3.851440450108051,0.9266928206026553,-0.41592078839018937
1646167791180995800,1.658995849609375,3.8945810881763694,0.5313882653921842,-0.35373058193698526
1646167791190977000,1.66897705078125,3.9262113211929797,0.10318097301125526,-0.12370631303712724
1646167791200959000,1.678958984375,4.000076767870784,-0.34325931067466736,0.24172742004469036
1646167791210940200,1.688940185546875,4.001831502583623,-0.8027677502483129,0.4719530567355454
1646167791220922000,1.698922119140625,3.9558459964781996,-1.1623691239148377,0.6821548731818795
1646167791230902800,1.70890283203125,3.6992847260475155,-1.4824217465251683,0.8784230029523372
1646167791240885000,1.718885009765625,3.1156647536367177,-1.684363538017869,0.9362929350536316
1646167791250867200,1.7288671875,2.556449154642224,-1.6385294230818748,0.7288982119172811
1646167791260848000,1.73884814453125,1.9601795440167187,-1.412411806231737,0.2151298474330455
1646167791270829800,1.748829833984375,1.3872329413115978,-1.2647393650650978,-0.21355719128884373
1646167791280812000,1.75881201171875,0.8520645728588103,-1.1787585331797599,-0.5841778254892677
1646167791290793000,1.76879296875,0.1958715316683054,-1.1006786836773157,-0.9926984936907887
1646167791300775200,1.778775146484375,-0.8167185341894626,-0.8282967437803744,-1.2746304983519017
1646167791310756000,1.788756103515625,-1.626227575391531,-0.6978782197535037,-1.4385226913049816
1646167791320738000,1.798738037109375,-2.1581629532724618,-0.9174395468279719,-1.5518544714525342
1646167791330719000,1.808718994140625,-2.5439368790715933,-1.2098451608389615,-1.4334624853059648
1646167791340701200,1.818701171875,-2.6926322335451838,-1.681530068157613,-1.0924327603142707
1646167791350683000,1.828682861328125,-2.8004607401013373,-1.9377397486716508,-0.9772332865986972
1646167791360664000,1.8386640625,-2.9342110388994214,-1.9955954330518841,-0.9784623900022357
1646167791370646000,1.84864599609375,-3.0322394514530897,-2.217844099514186,-1.0121060817331076
1646167791380627000,1.858626953125,-3.1346009247750044,-2.6135353159546852,-0.9169774092089384
1646167791390609200,1.868609130859375,-3.316806919184327,-2.826034741818905,-0.7531373117692768
1646167791400590800,1.8785908203125,-3.579763443610072,-2.7415014783933755,-0.7036401442810892
1646167791410572000,1.888572021484375,-3.9583588560819623,-2.3622081467851994,-0.731853043134883
1646167791420554000,1.898553955078125,-4.509279504939913,-1.9734961217075586,-0.718149585018307
1646167791430536000,1.908535888671875,-5.350338699659705,-1.400942025451362,-0.6649130848713218
1646167791440516900,1.918516845703125,-6.195034789577126,-0.6433630779728293,-0.7366195999495685
1646167791450499000,1.9284990234375,-6.585810469186305,-0.04969020584225654,-0.9365531934250145
1646167791460480000,1.93847998046875,-6.307865049943327,0.3716816875606775,-1.068087277478352
1646167791470462200,1.948462158203125,-5.336645689871907,0.6278843538120389,-0.9934734966512769
1646167791480444000,1.95844384765625,-3.9466666647225614,0.5595245188131928,-0.7430236217729747
1646167791490425000,1.968425048828125,-2.6163655709445477,0.3973445366054773,-0.3723998457673937
1646167791500407000,1.978406982421875,-1.3286194243013858,0.38959260730445383,0.03228577431589365
1646167791510388000,1.988387939453125,-0.17430267393887042,0.5585100810736418,0.2661835967134684
1646167791520370000,1.998369873046875,0.5625356833279133,0.7795005641683935,0.3167904059439897
1646167791530352000,2.00835205078125,1.0867834293156862,0.9628118894711136,0.3878839767556637
1646167791540333000,2.0183330078125,1.3333043672472238,1.0785407938882707,0.4412658036574721
1646167791550315000,2.02831494140625,1.316854752227664,1.2495534863710402,0.4852572864014655
1646167791560296000,2.0382958984375,1.1945277647197245,1.4385457799196242,0.5628235603585839
1646167791570278000,2.04827783203125,1.1399608927518128,1.525041575589776,0.6535632041435688
1646167791580260000,2.058260009765625,1.2055004096329212,1.542596521502733,0.854775658448413
1646167791590241000,2.068240966796875,1.3504986631542444,1.5555407587498427,1.0990317201878874
1646167791600223000,2.078222900390625,1.4517507139295338,1.6034619090929627,1.3086080251470207
1646167791610205000,2.088204833984375,1.4914070170134306,1.6767945640683173,1.4025843858309088
1646167791620186000,2.09818603515625,1.681718576467037,1.764594135813415,1.3238355510257185
1646167791630168000,2.10816796875,2.0044605842918157,1.9890876585930584,1.2484303275600075
1646167791640149000,2.11814892578125,2.308291555419564,2.1363123559921977,1.1246771797064692
1646167791650131000,2.128130859375,2.634292272779345,2.171610463866591,0.9492100650981068
1646167791660113200,2.138113037109375,2.8863083009958266,2.086626826325059,0.7114161120448261
1646167791670094000,2.148093994140625,3.0968606844455002,1.7685276758700608,0.6234833423741162
1646167791680076000,2.158075927734375,3.3439263967782256,1.3610668189197779,0.6317606107234954
1646167791690058000,2.16805810546875,3.497013264209032,1.2496511015266178,0.6227957985013723
1646167791700039000,2.178038818359375,3.6533436436057087,1.2920996656775474,0.5627991565696895
1646167791710021000,2.188021240234375,3.7346418706327675,1.2991057450473307,0.3950355290107429
1646167791720002000,2.198001953125,3.704246732369065,1.1757646120607852,0.2978612490683794
1646167791729984000,2.20798388671875,3.6094051331579684,0.9138473675549029,0.32893472498506304
1646167791739966000,2.217966064453125,3.7003777819812296,0.751245068281889,0.3041311961833387
1646167791749947100,2.227947021484375,3.6528503071308136,0.7285498368710279,0.3789145614236593
1646167791759928800,2.2379287109375,3.6016391753315924,0.72904960308671,0.3795995480131358
1646167791769911000,2.2479111328125,3.467902905058861,0.6670300770252943,0.4302249888788908
1646167791779892000,2.25789208984375,3.247556857347488,0.5326823968559503,0.49578328352570533
1646167791789874200,2.267874267578125,2.9426059422791004,0.2785194197386503,0.5261216501008719
1646167791799855000,2.277855224609375,2.517092126765847,0.11779109764397144,0.3665505352173
1646167791809837000,2.287837158203125,1.9497054962754248,0.22948446293473243,-0.05421615883409977
1646167791819819000,2.297819091796875,1.4183581474155187,0.2771908014833927,-0.3414531380355358
1646167791829800200,2.30780029296875,1.004680900168419,0.14496961194872857,-0.49596017446257173
1646167791839782000,2.317781982421875,0.6566817014902829,-0.03629939387142658,-0.49423229122404005
1646167791849764000,2.32776416015625,0.2604869194418192,-0.19929390733242033,-0.3785818954031914
1646167791859745000,2.3377451171875,-0.020815993535518645,-0.26670973947942256,-0.32729484882354737
1646167791869727000,2.34772705078125,-0.3215454915165901,-0.45203094329982996,-0.28687662145644427
1646167791879708200,2.357708251953125,-0.694530078369379,-0.8582429692327975,-0.1921788876954466
1646167791889689900,2.36768994140625,-0.9969856694906949,-1.3029033837646244,-0.05866203232705593
1646167791899672000,2.377672119140625,-1.1376923632979392,-1.6371028974100947,0.08520776515360921
1646167791909653000,2.387653076171875,-1.3408172270953655,-1.8856483269065618,0.049601796906441446
1646167791919635000,2.397635009765625,-1.8547896627843379,-1.9239535076424479,0.0510677778057754
1646167791929617000,2.407616943359375,-2.687188581186533,-1.8708967479765415,0.12246325417347252
1646167791939598000,2.41759814453125,-3.6787744374603033,-1.7589339180946348,0.16758609730126336
1646167791949580000,2.427580078125,-4.854083122447133,-1.6121303687170148,0.10659363099895416
1646167791959562000,2.43756201171875,-5.51019842222631,-1.916439186489582,0.02450608022511005
1646167791969543000,2.44754296875,-5.155440981459617,-2.3817165648534893,0.019624664859101176
1646167791979525000,2.457525146484375,-4.157747455960512,-2.4945658221811056,-0.14802987630218267
1646167791989507000,2.467507080078125,-3.012307255014777,-2.222870987765491,-0.34031083613261576
1646167791999488000,2.477488037109375,-2.089054345732927,-1.798212620037794,-0.5592385414786637
1646167792009470000,2.487469970703125,-1.512044146850705,-1.4302762564852833,-0.7751002103175968
1646167792019451000,2.497450927734375,-1.3133189793169497,-1.0812585284143685,-0.7745734099645167
1646167792029433000,2.50743310546875,-1.3781056320041418,-0.6299544380843639,-0.7053123152770102
1646167792039415000,2.5174150390625,-1.3189707214683293,-0.3361518167570233,-0.708374552391842
1646167792049395200,2.527395263671875,-1.0080880782634019,-0.19252309802323578,-0.7489559344314038
1646167792059377400,2.53737744140625,-0.5806745666086673,-0.008076631210744381,-0.7972586314380169
1646167792069359400,2.547359375,-0.32886721270680425,0.1806982201948762,-0.9384291433647275
1646167792079340500,2.557340576171875,-0.4290840752154588,0.3322361046180129,-1.2042824121452866
1646167792089322200,2.567322265625,-0.8405249417126178,0.4996048876404762,-1.3908172295391559
1646167792099304400,2.577304443359375,-1.1911036354899405,0.6569789308711886,-1.4539230895325541
1646167792109285400,2.587285400390625,-1.435472948345542,0.8076198664546013,-1.4789819813348353
1646167792119267600,2.597267578125,-1.5108704268962143,0.9618179099977016,-1.3433578514888882
1646167792129249300,2.607249267578125,-1.514808350867033,1.1253449229001997,-1.0963369281459598
1646167792139230200,2.617230224609375,-1.4808172339379786,1.3764058423489332,-0.8999117081176489
1646167792149212400,2.62721240234375,-1.4774346057623624,1.631766504818201,-0.6884481281071901
1646167792159193300,2.637193359375,-1.431776431915164,1.9027122744321823,-0.5077295227114111
1646167792169175300,2.64717529296875,-1.050548332852125,1.9531173505455255,-0.2744506359297782
1646167792179157200,2.6571572265625,-0.3628980771243572,1.648775507286191,0.16293270027115941
1646167792189138400,2.667138427734375,0.40878479903042314,1.558369260174036,0.551937790011242
1646167792199120400,2.677120361328125,1.1172177305459976,1.8990145889580248,0.6982656116358935
1646167792209102300,2.687102294921875,1.8770225373804568,1.9313819040775297,0.750891578669101
1646167792219083300,2.697083251953125,2.689317994430661,1.7169740142434835,0.8320842994950711
1646167792229065500,2.7070654296875,3.3212481165021654,1.6338041481256484,1.0047232049401849
1646167792239047200,2.717047119140625,3.6523429421305655,1.5191291366755961,1.163960630889982
1646167792249028400,2.7270283203125,3.806428757470846,1.3524977280169725,1.1647719472728668
1646167792259010300,2.73701025390625,3.7931747236222026,1.192831482195854,1.0343513774193822
1646167792268992500,2.746992431640625,3.613221476575732,1.1371838292539118,0.751400039647892
1646167792278973400,2.756973388671875,3.4491210476994514,1.1842074462354182,0.3913247648593038
1646167792288955400,2.766955322265625,3.383110990697145,1.182908054074645,0.29747093457654117
1646167792298936300,2.776936279296875,3.1913971632301807,1.1396055034428834,0.2650703747745603
1646167792308918300,2.786918212890625,2.783739906924963,1.0276718996554612,0.11901055643633007
1646167792318900200,2.796900146484375,2.4249317294627426,0.9255331291735172,-0.02789506507627666
1646167792328881200,2.806881103515625,2.0192863975018263,0.829222626453638,-0.21842406667284667
1646167792338863400,2.81686328125,1.6047160008072852,0.6957219185024499,-0.33058753369338806
1646167792348845300,2.82684521484375,1.3309107501089572,0.45660687291324137,-0.32682701211608944
1646167792358826500,2.836826416015625,1.2134516608983277,0.17580314162969587,-0.3269678088262677
1646167792368808200,2.84680810546875,1.2197913853138684,-0.15308979004025458,-0.3314330446068197
1646167792378790400,2.856790283203125,1.2428969510912895,-0.48915071364343166,-0.34568909510485823
1646167792388771300,2.866771240234375,1.262303077828884,-0.874814749327302,-0.35384690179303285
1646167792398753300,2.876753173828125,1.2738801183760164,-1.1356383533775807,-0.3679270112022757
1646167792408735200,2.8867353515625,1.3021703933149575,-1.4540554837405681,-0.3530255024075508
1646167792418716400,2.89671630859375,1.1898445753395557,-1.7257623008549212,-0.39677572374157605
1646167792428698400,2.906698486328125,0.7625999905109405,-1.9323527949362993,-0.4711195285208523
1646167792438680300,2.916680419921875,0.09289747940599918,-2.0441484515577555,-0.5162749404776841
1646167792448661200,2.9266611328125,-0.7090040094017982,-1.9626643465697764,-0.44744317711815235
1646167792458643500,2.9366435546875,-1.6706337033510208,-1.6911153503656386,-0.2675716900710016
1646167792468625400,2.94662548828125,-2.794538364315033,-1.5108844554215668,-0.11673398980647325
1646167792478606300,2.9566064453125,-3.85069693826437,-1.6466946093589065,-0.022058467877283692
1646167792488588300,2.96658837890625,-4.580488884150982,-2.068088130071759,0.1786919949389994
1646167792498570500,2.976570556640625,-4.805132921317219,-2.366056931167841,0.27558079073717817
1646167792508551400,2.986551513671875,-4.614368357399106,-2.343428335252404,0.2901267823588103
1646167792518533000,2.996533203125,-4.236246407657862,-2.064509102541208,0.2755474912557751
1646167792528514300,3.006514404296875,-3.9727556302249427,-1.7132254753649234,0.12353417134061455
1646167792538496300,3.016496337890625,-3.8247985268980265,-1.3607950162410736,0.15649103158479555
1646167792548478500,3.026478515625,-3.5397196025133133,-1.046514547291398,0.1948603818643838
1646167792558459400,3.03645947265625,-3.111404173582792,-1.0233470221936702,0.40599334168098866
1646167792568441300,3.04644140625,-2.719003523120284,-0.5350345129400491,0.3633219285596162
1646167792578423300,3.05642333984375,-2.1095599581450224,-0.015464111113548278,0.06927578079998493
1646167792588404500,3.066404541015625,-1.335118723192811,0.3459814291149378,-0.09208455558791756
1646167792598386200,3.07638623046875,-0.5074655380129813,0.47445700238049027,-0.10939027598015963
1646167792608368400,3.086368408203125,0.16373977887034416,0.45626668117344377,-0.015950360260531305
1646167792618349300,3.096349365234375,0.5893295822292566,0.5779693993031978,0.17186134520135818
1646167792628331500,3.10633154296875,0.6795142955452204,0.8587082486569881,0.3988351770220324
1646167792638313200,3.116313232421875,0.5187257676959037,1.071885719913244,0.6123438895266503
1646167792648294400,3.12629443359375,0.36313597753345966,1.2131143917679785,0.8351093464046716
1646167792658276400,3.1362763671875,0.17719371920526025,1.4688853886038065,0.973266355729103
1646167792668258300,3.14625830078125,0.08743862947821616,1.6556296109646558,1.063516316301003
1646167792678239200,3.1562392578125,0.034389176335930825,1.7838246137231588,1.0934432525310664
1646167792688221400,3.166221435546875,0.02709434315264225,1.9842162531644105,1.0641999146509915
1646167792698203400,3.176203369140625,0.07386661572158336,2.2040701334446666,0.9984130719453096
1646167792708184300,3.186184326171875,0.12348843250274658,2.3276819000661373,0.8827803213790059
1646167792718166300,3.196166259765625,0.22863106097579,2.361577155405283,0.7054205979570746
1646167792728148500,3.2061484375,0.5161030179768801,2.3102532108813523,0.5133905441477894
1646167792738129400,3.21612939453125,0.9414648577988147,2.1629940266907215,0.3168825777394697
1646167792748111400,3.226111328125,1.498396145248413,1.9812989044129847,0.17414704498574138
1646167792758093300,3.23609326171875,2.0482921272337435,1.7717583283543585,0.15988858333490788
1646167792768074200,3.24607421875,2.4717706375271082,1.5857079334765671,0.09967924850061535
1646167792778056400,3.256056396484375,2.8269454269230363,1.5492016188561915,-0.01887611151412129
1646167792788038100,3.2660380859375,3.251608178564906,1.4771639721274374,-0.16251980862133203
1646167792798019300,3.276019287109375,3.6489912936151025,1.344247786065936,-0.2624023976743221
1646167792808001300,3.286001220703125,3.9534745911717413,1.2355658775508402,-0.3256407249409705
1646167792817982500,3.295982421875,4.116359214517474,1.143750348162651,-0.43761115360744296
1646167792827964400,3.30596435546875,4.117273406752944,1.0121037436455487,-0.512966181255877
1646167792837946400,3.3159462890625,4.056945487040281,0.8747633114010095,-0.4148931258428842
1646167792847927300,3.32592724609375,3.9201071590989827,0.7473556596279144,-0.36724049024283884
1646167792857909500,3.335909423828125,3.6651129918545484,0.5378220978319644,-0.4212770547263324
1646167792867891200,3.34589111328125,3.371308324700594,0.343494872996211,-0.4029794737525284
1646167792877872000,3.3558720703125,2.9889672959595917,0.2300695693463087,-0.36066593415811654
1646167792887854300,3.365854248046875,2.50886205855906,0.07494856573939324,-0.21125161776021123
1646167792897836500,3.37583642578125,1.8312042045354842,0.025183541095256803,-0.04847118544131517
1646167792907817500,3.3858173828125,1.205920096349716,0.08352350186109542,0.12049926975728012
1646167792917799200,3.395799072265625,0.9436053769588469,-0.11593524064421654,0.4281818656787276
1646167792927781400,3.405781494140625,0.7337935827434062,-0.39783027429580686,0.6943739379595965
1646167792937762300,3.41576220703125,0.4822936873555183,-0.5723357773303985,0.8006081610616296
1646167792947744300,3.425744140625,0.13273089262247084,-0.6442892529070376,0.8757656933765858
1646167792957726200,3.435726318359375,-0.27529753508269783,-0.8167161961019038,1.043732588422671
1646167792967707400,3.445707275390625,-0.6336147141575813,-1.0812176118820904,1.2089118985768408
1646167792977689300,3.455689453125,-0.8968979863196611,-1.4160492859512566,1.2996537343189118
1646167792987671300,3.46567138671875,-1.0630641155540943,-1.7633172477453947,1.4032719297036529
1646167792997652200,3.47565234375,-1.2681471276819705,-2.0365555122107266,1.3604983713820575
1646167793007634400,3.485634521484375,-1.3784563451379537,-2.0717846465021372,1.0924194624412804
1646167793017616400,3.495616455078125,-1.4762760833770037,-1.9549369671881198,0.7377361828893423
1646167793027597300,3.505597412109375,-1.7678700887441634,-1.9726824672371148,0.4342462072189897
1646167793037579300,3.515579345703125,-2.2012463081955906,-2.2501924176722765,0.07419387491457163
1646167793047561500,3.5255615234375,-2.6834663457930086,-2.7276135305553675,-0.28631504205092784
1646167793057542700,3.535542724609375,-3.049344315510988,-3.1713653058096765,-0.6884247472316026
1646167793067524400,3.5455244140625,-3.30742008215785,-3.2484485454902052,-1.002611619613692
1646167793077506600,3.555506591796875,-3.424246134161949,-2.683372237768769,-1.2397107222706079
1646167793087487500,3.565487548828125,-3.4391122793823476,-2.1126932877346873,-0.45778863004371523
1646167793097469700,3.5754697265625,-4.039332673460245,-2.170566215510666,-1.2247069221451878
1646167793107451400,3.585451416015625,-4.406254599273205,-1.7851061779662967,-0.9761053054820745
1646167793117432600,3.5954326171875,-5.494143359482288,-0.32154227664619683,-0.5876376105543226
1646167793127414500,3.60541455078125,-6.2364218619763845,0.9007242666095495,-0.6624166649457067
1646167793137396500,3.615396484375,-5.939082006433606,1.381454942432046,-0.8256520014252513
1646167793147377400,3.62537744140625,-4.914413964769244,1.1015279939830303,-0.6850326205752789
1646167793157359600,3.635359619140625,-3.6434535332322118,0.8140235960170626,-0.5019083788098767
1646167793167340500,3.645340576171875,-2.3936539631456135,1.0147811461612581,-0.560611108473502
1646167793177322800,3.65532275390625,-1.2039105100929737,1.2779162420243024,-0.5141573638018221
1646167793187304400,3.665304443359375,-0.31931320241987704,1.3382915080100297,-0.6576328647352755
1646167793197285400,3.675285400390625,0.2325754146873951,1.2933446973025797,-0.9138552586004137
1646167793207267600,3.685267578125,0.6225304255634546,1.2533552167415618,-1.0532088572982699
1646167793217249500,3.69524951171875,0.9123176737695932,1.2801105371981858,-1.0906304601326584
1646167793227230500,3.70523046875,1.2293792978703975,1.4554402160972355,-1.066411891612038
1646167793237212400,3.71521240234375,1.4601193138241768,1.6441005012124776,-0.913927081727609
1646167793247194600,3.725194580078125,1.4915432106137274,1.7930583060145378,-0.7852111969001591
1646167793257175600,3.735175537109375,1.4116227016806602,1.9519430460691451,-0.6334989788234233
1646167793267157500,3.745157470703125,1.2296423327207564,1.9710288548111914,-0.4764199730165303
1646167793277139500,3.755139404296875,1.1065957987666128,1.958239515864849,-0.2974959228873253
1646167793287120600,3.76512060546875,1.1857833172500132,1.9610691863328218,-0.11159933033175766
1646167793297102300,3.775102294921875,1.3662556197345257,1.947602971038222,0.01264481590911746
1646167793307084500,3.78508447265625,1.6173931115508078,1.8999445632845162,0.1403328920587897
1646167793317065500,3.7950654296875,1.9262427876234054,1.9313789814680813,0.2973338641934097
1646167793327047700,3.805047607421875,2.204104620236158,1.7802987776845693,0.34560660445317626
1646167793337029400,3.815029296875,2.477822192651033,1.593028485623002,0.29897286357209085
1646167793347010600,3.825010498046875,2.7059534874111413,1.5121750797539948,0.2504565968800336
1646167793356992500,3.834992431640625,2.8399761734098194,1.4039216257840395,0.1805667758349329
1646167793366974700,3.844974609375,2.9128812506228683,1.2701163819283245,0.1526923882205039
1646167793376955400,3.854955322265625,3.0038749422341584,1.178961362275481,0.08022540103062055
1646167793386937600,3.8649375,3.14205007173717,1.0426134481996296,0.07127586857602
1646167793396919600,3.87491943359375,3.359129226607084,0.9459639227837323,0.07217150224149227
1646167793406900500,3.884900390625,3.5662446213454007,0.8952280072808265,0.019835750326514242
1646167793416882400,3.89488232421875,3.6569437139242886,0.7552519658356904,-0.09508740893201902
1646167793426863400,3.90486328125,3.587607727369666,0.5743868646413087,-0.2430919863961637
1646167793436845600,3.914845458984375,3.3687522104769942,0.43147184713482856,-0.30435674856752154
1646167793446827500,3.92482763671875,3.1580735702991483,0.1888520082950592,-0.24855923882611095
1646167793456808400,3.934808349609375,3.025852965286374,-0.09700725281238555,-0.16222900898121295
1646167793466790400,3.944790283203125,2.8989257905066013,-0.31302257784307,-0.2172998301495798
1646167793476772600,3.954772705078125,2.6083967840224505,-0.6517004059463739,-0.46367564225569363
1646167793486753500,3.96475341796875,2.2378496534496546,-1.0739707094937563,-0.7507556773297488
1646167793496735500,3.974735595703125,1.7875328205913303,-1.490963949421048,-1.0317778736695646
1646167793506717400,3.984717529296875,1.2264806538194417,-1.9066133735239505,-1.250138738913089
1646167793516698600,3.99469873046875,0.6071235975950956,-2.2704618832409382,-1.2460180057212709
1646167793526680600,4.0046806640625,-0.12973404889404774,-2.4830121625095605,-1.0561934991322457
1646167793536662500,4.01466259765625,-1.0330570998251438,-2.4598452219337226,-0.6514147939380258
1646167793546643500,4.0246435546875,-1.850115825754404,-2.3186223952978846,-0.18790727479085326
1646167793556625700,4.034625732421875,-2.5118168167114256,-2.316828497618437,0.06959134955517947
1646167793566607400,4.044607421875,-3.138680303043127,-2.2434575564593073,0.13940036044903098
1646167793576588500,4.054588623046875,-3.6866818495839833,-2.1272423298299312,0.14832337935604153
1646167793586570500,4.064570556640625,-4.203396277457475,-2.1720354112803935,0.010706687453389168
1646167793596551400,4.074551513671875,-4.6334635184913875,-2.403937164489925,-0.08806998618431389
1646167793606533600,4.08453369140625,-4.789904372525215,-2.5710291763976216,-0.0713932844106108
1646167793616515300,4.094515380859375,-4.693558213970065,-2.5078636951714754,-0.04404708538874984
1646167793626496500,4.10449658203125,-4.465231104376912,-2.288862632328272,-0.046099862333247435
1646167793636478500,4.114478515625,-4.422721165427565,-1.8826538212656974,-0.10355009858459234
1646167793646460400,4.12446044921875,-4.687383324727416,-1.3027575455531477,-0.1782640518505126
1646167793656441300,4.13444140625,-5.150744348075985,-0.5947922315493226,-0.26273564821667966
1646167793666423600,4.144423583984375,-5.596189775505661,0.04763035070300102,-0.2559024411957711
1646167793676405500,4.154405517578125,-5.579068544834852,0.48826983915567396,-0.0771518479373306
1646167793686386700,4.16438671875,-5.026671978205442,1.1069681392103432,-0.10424261089339852
1646167793696368400,4.174368408203125,-3.701106096255779,1.3663658021107314,-0.20230901736989615
1646167793706350600,4.1843505859375,-2.108786051163077,1.3176456103444099,-0.1315343032490462
1646167793716331500,4.19433154296875,-0.6957084744989872,1.3093705339521169,0.17948285305574535
1646167793726313500,4.2043134765625,0.3333019802838564,1.3810785103350878,0.46837687874920664
1646167793736295400,4.21429541015625,1.033970123016834,1.4996505292236804,0.6833477362282574
1646167793746276600,4.224276611328125,1.3669956244468688,1.5799100608527659,0.80552406321913
1646167793756258600,4.234258544921875,1.4086340412586926,1.5694564713776111,0.8608326203998178
1646167793766239500,4.244239501953125,1.3296610423088073,1.5636737963229417,0.9814780845616012
1646167793776221400,4.254221435546875,1.2250807238936423,1.6915017193347215,1.1069051569767296
1646167793786203600,4.26420361328125,1.1400175913751125,1.8779618640571831,1.2247189779091625
1646167793796184600,4.2741845703125,1.0882330436021088,1.9244284316778182,1.3163923954129217
1646167793806166500,4.28416650390625,1.0217670595258475,1.9560645099133251,1.310894090257585
1646167793816148500,4.2941484375,0.9328431599259376,1.9957605604857205,1.2236394390441476
1646167793826129400,4.30412939453125,0.9012672874450683,2.060173119163513,1.0620593954909592
1646167793836111600,4.314111572265625,1.053547514668107,2.105472981092334,0.8675880860093981
1646167793846093300,4.32409326171875,1.3412386673778294,2.0232617308735845,0.6395825365208089
1646167793856074500,4.334074462890625,1.6562322530329225,1.9092115733236072,0.4268007865838706
1646167793866056400,4.344056396484375,2.0995108578175303,1.7934172024548052,0.35148243768401444
1646167793876037600,4.35403759765625,2.6175533194243905,1.6456734496176242,0.263873566205427
1646167793886019600,4.36401953125,3.148663936918974,1.5331687679439783,0.19591405563578007
1646167793896001500,4.37400146484375,3.510954111278057,1.4171926107674837,0.1579337229400873
1646167793905982500,4.383982421875,3.732800042158365,1.2515414453178644,0.0719219113945961
1646167793915964700,4.393964599609375,4.0483132677733895,1.139050792169571,0.0006926584392786026
1646167793925946400,4.4039462890625,4.370756584912538,1.0578326446413993,-0.09984868678338825
1646167793935927600,4.413927490234375,4.47090388931632,0.9851789118409157,-0.3036138212457299
1646167793945909500,4.423909423828125,4.214263123908639,0.918416575166583,-0.5458810472555459
1646167793955891700,4.4338916015625,3.6184067702591416,0.754338942644,-0.6375817911576479
1646167793965872600,4.44387255859375,2.8308862735033036,0.6386392643213272,-0.5739602367270737
1646167793975854300,4.453854248046875,2.1798943080872295,0.5079986219763756,-0.4197358166337013
1646167793985836500,4.46383642578125,1.7214175496488808,0.33293957671225066,-0.19152758417986332
1646167793995817500,4.4738173828125,1.3328554544359446,0.12634440645575523,-0.04576338778734207
1646167794005799400,4.48379931640625,1.059319668328762,-0.10383563752770424,-0.11248532851920462
1646167794015780400,4.4937802734375,0.815693867316842,-0.41232232550680636,-0.1613834250025451
1646167794025762600,4.503762451171875,0.5151403104245662,-0.7504086174577475,-0.21901194956339895
1646167794035744500,4.51374462890625,0.15338672716021537,-0.9704512983083724,-0.26056838718019426
1646167794045725700,4.5237255859375,-0.18194763573408126,-1.0831289984613657,-0.1873351009260863
1646167794055707400,4.533707275390625,-0.5133230318695307,-1.1570219176679848,-0.016080927837640046
1646167794065689600,4.543689697265625,-0.8241764489799738,-1.2379682625174522,0.1182728898115456
1646167794075670500,4.55367041015625,-1.0274439361184835,-1.3111819672882556,0.12768069656081496
1646167794085652500,4.563652587890625,-1.1831442009180784,-1.3559960915267466,0.08457724869772791
1646167794095634400,4.573634521484375,-1.3244208035677671,-1.4077923297375439,-0.019871260031312704
1646167794105615600,4.58361572265625,-1.3680577007204293,-1.4810995580106974,-0.1261174658320844
1646167794115597600,4.59359765625,-1.3853870211839676,-1.5019775108665228,-0.20052491043210027
1646167794125578500,4.60357861328125,-1.4411281976282595,-1.5363047278821467,-0.2739996042266488
1646167794135560400,4.613560546875,-1.531483006814122,-1.5950135219603776,-0.35484482678920026
1646167794145542700,4.623542724609375,-1.625218690609932,-1.7791005078107118,-0.33824893516674637
1646167794155523600,4.633523681640625,-1.653175203549862,-2.1339526411235332,-0.2385623801425099
1646167794165505500,4.643505615234375,-1.5587094519138336,-2.3846295296907423,-0.1512286723434925
1646167794175487500,4.653487548828125,-1.3978098649054764,-2.3503654410392043,-0.10181816022545098
1646167794185468400,4.663468505859375,-1.345812551164627,-2.064821237230301,-0.08760390304252505
1646167794195450600,4.67345068359375,-1.5065747755289076,-1.5853665726929902,-0.128766519036144
1646167794205431600,4.683431640625,-1.8889152197480201,-0.8850503121376037,-0.1218318974673748
1646167794215413500,4.69341357421875,-2.614783854711056,-0.09559738601446151,-0.18527583030872047
1646167794225395500,4.7033955078125,-3.5801544887542724,0.5217109209865332,-0.28043292520977553
1646167794235376600,4.713376708984375,-4.362199184447527,0.8444389002859592,-0.24882227367646992
1646167794245358600,4.723358642578125,-4.451911019554734,0.8563023565590381,-0.08770940924361348
1646167794255340500,4.733340576171875,-3.8636873527407642,0.8396744623631238,0.05012070621401071
1646167794265321500,4.743321533203125,-2.9533371796518564,0.9343003729969263,0.0904234905079007
1646167794275303700,4.7533037109375,-2.060020558950305,0.9487935932517051,0.07293539928607642
1646167794285285400,4.763285400390625,-1.2008581367850304,0.8473352062493562,0.03044211921058595
1646167794295266600,4.7732666015625,-0.3580132276922464,0.7890905225515366,0.02681676832027733
1646167794305248500,4.78324853515625,0.34963761353492734,0.7804758389413357,-0.016993585703149437
1646167794315229400,4.7932294921875,0.9726303959131241,0.7950438779979944,-0.11776757063791155
1646167794325211600,4.803211669921875,1.4285428568214178,0.7674018378347158,-0.25799561408273874
1646167794335193300,4.813193359375,1.721380140247941,0.7963479463338852,-0.4077348515860736
1646167794345174500,4.823174560546875,1.8586691345661877,0.9519225389271974,-0.5384720861732959
1646167794355156500,4.833156494140625,1.6558172424912452,1.1553478469759224,-0.7195717267759144
1646167794365138400,4.843138427734375,1.2007751346766948,1.3501871129870413,-0.9452594277761877
1646167794375119400,4.853119384765625,0.6401198582679033,1.5091712217628954,-1.0779330372534692
1646167794385101600,4.8631015625,0.14997896454334259,1.7368536037117241,-1.2311239495806394
1646167794395083500,4.87308349609375,-0.12121347330808639,1.8660341103762388,-1.2583419191129506
1646167794405064700,4.883064697265625,-0.11227145743966102,1.7292624179303646,-1.0172078618515281
1646167794415046400,4.89304638671875,0.12001871056556701,1.5287264015823603,-0.6277571472357958
1646167794425027600,4.903027587890625,0.5485118341505527,1.4917559765815733,-0.3425228130936622
1646167794435009500,4.913009521484375,1.2256991480529307,1.473487329441309,-0.15116123313046992
1646167794444991500,4.922991455078125,1.8889257411420344,1.417725110208988,-0.0014808862075209616
1646167794454972400,4.932972412109375,2.3953467385381457,1.3404448866516352,0.082769907014817
1646167794464954600,4.94295458984375,2.784550638785958,1.2504723547816277,0.1427063431918621
1646167794474936600,4.9529365234375,3.091130031839013,1.1552934864401816,0.27032763771563767
1646167794484917500,4.96291748046875,3.3423744911611077,1.0559428853720425,0.3280678790226578
1646167794494899500,4.9728994140625,3.5619144831866025,1.0344418321818112,0.3121241676986217
1646167794504880400,4.98288037109375,3.7254385734796522,0.9647422730118036,0.26219343109875914
1646167794514862600,4.992862548828125,3.792389126202464,0.7777788549423217,0.2046308844462037
1646167794524844300,5.00284423828125,3.7745325669944285,0.5861024368762969,0.15109949300587178
1646167794534825500,5.012825439453125,3.783337804740667,0.42951194523870945,0.09712929002316668
1646167794544807400,5.022807373046875,3.75867741073668,0.2852168715506792,0.012232161721307784
1646167794554789600,5.03278955078125,3.6061709735423326,0.2140869873166084,-0.113497619967442
1646167794564770600,5.0427705078125,3.3546190557062623,0.09611702597439288,-0.217498841586709
1646167794574752500,5.05275244140625,2.921171524584293,-0.06442600268125534,-0.2910376866586506
1646167794584733400,5.0627333984375,2.320644256514311,-0.2154074222654104,-0.27777999954819677
1646167794594715600,5.072715576171875,1.7325620439976452,-0.3802911104738712,-0.25990882729291914
1646167794604697300,5.082697265625,1.2245944016814232,-0.6025754327714443,-0.35334172874987124
1646167794614678500,5.092678466796875,0.7846265288800001,-0.8239245200455189,-0.4366039493262768
1646167794624660500,5.102660400390625,0.34781975045800206,-1.0077776971399783,-0.5286939117416739
1646167794634642700,5.112642578125,-0.05681611219942569,-1.2793740396171807,-0.6442809234701097
1646167794644623600,5.12262353515625,-0.5273264227807521,-1.5139146168977022,-0.758957688485831
1646167794654605600,5.13260546875,-1.0663257476985455,-1.6577485028147696,-0.8232995200149714
1646167794664587500,5.14258740234375,-1.721449113830924,-1.8207827637642622,-0.7674212001223116
1646167794674568400,5.152568359375,-2.372739185410738,-1.9595219568908213,-0.6180421742334962
1646167794684550400,5.16255029296875,-3.018916444021463,-2.024186152242124,-0.4409795340619981
1646167794694531300,5.17253125,-3.6724750450551507,-2.0051883140444753,-0.257042624206841
1646167794704513500,5.182513427734375,-4.170865880730748,-1.994458245715499,-0.15229498640075326
1646167794714495500,5.19249560546875,-4.395566031998396,-2.1104545688971874,-0.08993300357721745
1646167794724476700,5.2024765625,-4.258355363613367,-2.383086684162915,-0.03948445364832878
1646167794734458400,5.212458251953125,-3.764201142594218,-2.5070427341774106,-0.012686828419938683
1646167794744439600,5.222439453125,-3.3200451704531906,-2.3896724922940136,-0.0008632657658308744
1646167794754421500,5.23242138671875,-3.217502495345473,-2.2241022831261157,-0.01508519479855895
1646167794764403500,5.242403564453125,-3.4260078831374643,-2.044820651730895,0.13710970136174
1646167794774384400,5.25238427734375,-3.690822602650523,-1.8634075612649321,0.3496419974491
1646167794784366600,5.26236669921875,-4.130508151379227,-1.3493722894728184,0.39159320653714236
1646167794794348500,5.2723486328125,-4.2585213678300375,-0.734291887654364,0.2826655796326697
1646167794804329500,5.28232958984375,-3.7646535625368354,-0.3930550227180123,0.14156287224516273
1646167794814311400,5.2923115234375,-2.817186833974719,-0.20979630438536404,-0.016620806868001818
1646167794824293600,5.302293701171875,-1.7629893309652804,-0.046109132485091686,-0.10062463959194719
1646167794834274600,5.312274658203125,-1.071941834014654,0.17777064231038092,-0.01514028598666191
1646167794844256500,5.322256591796875,-0.7608785735458136,0.34662615675926206,0.13681648143567143
1646167794854237400,5.332237548828125,-0.6659592329233884,0.574140196403861,0.3544507859703153
1646167794864219400,5.342219482421875,-0.7230699441552162,0.7470213131070137,0.6003310879107564
1646167794874201600,5.35220166015625,-0.7611240727394819,0.8615010942459106,0.7892465168308466
1646167794884182500,5.3621826171875,-0.7161947976887225,0.9658429277300834,0.9400646356120705
1646167794894164500,5.37216455078125,-0.5726958428144454,1.1543746180295944,0.970411258558929
1646167794904145400,5.3821455078125,-0.35943303136229515,1.2824603151947258,1.013794692407176
1646167794914127600,5.392127685546875,-0.17640929082930087,1.5008178194373845,0.9875582081928849
1646167794924109600,5.402109619140625,0.02510053898692131,1.8269126448214053,0.9077532884635031
1646167794934090500,5.412090576171875,0.26831834371984004,2.1065262895375487,0.8233262618914247
1646167794944072400,5.422072509765625,0.5833686279982329,2.2876579327136275,0.754469583286345
1646167794954054700,5.4320546875,0.9817927765339612,2.4695091223359107,0.6743497523888945
1646167794964035600,5.44203564453125,1.4588053086161612,2.60806185297966,0.5781382165314629
1646167794974017500,5.452017578125,2.017457428508997,2.627478501111269,0.3762275142967701
1646167794983998500,5.46199853515625,2.5976503490805625,2.523507839027047,0.11758468835167586
1646167794993980400,5.47198046875,3.106579529905319,2.376588262054324,-0.09144629421699792
1646167795003962600,5.481962646484375,3.5284184562981125,2.207937914788723,-0.3510665503595024
1646167795013943600,5.491943603515625,3.9040550189644097,2.0439649116843936,-0.6629989948783069
1646167795023925500,5.501925537109375,4.16847577072382,1.804958587166667,-0.9139343151859939
1646167795033907500,5.511907470703125,4.335997406220436,1.5682991180360317,-1.0811499534733593
1646167795043888600,5.521888671875,4.441853735920787,1.3433710032314061,-1.1910086506828665
1646167795053870800,5.531870849609375,4.342993548718095,1.1904904720276595,-1.190789820300415
1646167795063851800,5.541851806640625,4.090402935484051,1.1485206313043832,-1.1871035330031066
1646167795073834000,5.551833984375,3.84308763230443,1.0402210001051426,-1.0193901743266731
1646167795083816000,5.56181591796875,3.6428532292515037,0.9302765243083239,-0.71250916797854
1646167795093796900,5.571796875,3.396553825116157,0.900212225434184,-0.47881454000286755
1646167795103778800,5.58177880859375,3.2338743689537046,0.8139654360890388,-0.24778379747420548
1646167795113760000,5.591760009765625,3.058977236253023,0.6588415098726749,-0.013046820838749407
1646167795123742000,5.601741943359375,2.8215947135448456,0.4030658368617296,0.155653868374601
1646167795133724000,5.611723876953125,2.5944033299833533,0.12814824100732802,0.25023294419199227
1646167795143704800,5.621704833984375,2.2748346914976834,-0.13057751398086548,0.3981956735420972
1646167795153687000,5.63168701171875,1.9021739297717808,-0.468599508523941,0.5877567068893462
1646167795163669000,5.6416689453125,1.430620247617364,-0.7345347564995288,0.7089712031107396
1646167795173649700,5.651649658203125,0.9414707030177116,-1.0222942982703447,0.7324357383936643
1646167795183632000,5.6616318359375,0.4345440941870212,-1.2514794859975575,0.6568153378073126
1646167795193612800,5.67161279296875,-0.17015666017532347,-1.3892846131443977,0.5485320732209831
1646167795203595000,5.681594970703125,-0.8473585871249437,-1.583694255566597,0.5576791832074522
1646167795213576700,5.69157666015625,-1.583380951833725,-1.792155219694972,0.6252529093299061
1646167795223558000,5.701557861328125,-2.437262218725681,-1.923546388146281,0.6963763638231902
1646167795233539800,5.711539794921875,-3.0847844622045755,-2.078576790860295,0.6496463229607791
1646167795243521000,5.72152099609375,-3.5002217048615214,-2.3460727122813463,0.3928524128179997
1646167795253502700,5.731502685546875,-3.7096763562023636,-2.7853616629078983,0.01461377789452672
1646167795263485000,5.74148486328125,-3.630802725973725,-3.3549367433533073,-0.38640513637475665
1646167795273465900,5.7514658203125,-3.4666204640328884,-3.7673069996550677,-0.6481254700690507
1646167795283448000,5.761447998046875,-3.5098370899468656,-3.849121067249775,-0.7060355880502611
1646167795293429800,5.7714296875,-3.8309710780531168,-3.433921432740986,-0.5197164592336863
1646167795303411000,5.781410888671875,-4.516622268918156,-2.494309217071533,-0.16055128502734003
1646167795313393000,5.791392822265625,-5.597903009164333,-1.3406120599120854,0.17147906788550316
1646167795323373800,5.801373779296875,-6.845615251582861,-0.2854348982155323,0.4191977642342448
1646167795333355800,5.811355712890625,-7.481121478575468,0.25190701488405465,0.4991717569202184
1646167795343337700,5.821337646484375,-7.1156631955742835,0.40950434547662734,0.4811838264174759
1646167795353319000,5.83131884765625,-5.88388911152184,0.6420595941588282,0.3186951435867697
1646167795363300900,5.84130078125,-4.199973901793361,0.8380985913485288,0.04684657991416752
1646167795373282000,5.851281982421875,-2.4734365249127146,0.8649205473005771,-0.19227862174287438
1646167795383263700,5.861263671875,-0.9559785363197326,0.8199953639030456,-0.37987493088841434
1646167795393246000,5.871245849609375,0.2594277657777071,0.7628086648255586,-0.5168969448335469
1646167795403227000,5.881226806640625,1.1375614303946495,0.7060738011687994,-0.6045327043190598
1646167795413209000,5.891208984375,1.724874996626377,0.734459937697649,-0.7089056635938584
1646167795423190800,5.901190673828125,1.9266519529461859,0.8568319333910942,-0.7883380967490374
1646167795433172000,5.911171875,1.8578139790415762,0.9309171602994203,-0.745615391831845
1646167795443154000,5.92115380859375,1.3513181628435849,1.374348909819126,-0.850255331479758
1646167795453134800,5.931134765625,0.841339765226841,1.8385837933927773,-0.9346578081324696
1646167795463116800,5.94111669921875,0.6503495758593082,1.9373808522313831,-0.772627171267569
1646167795473099000,5.95109912109375,0.5585685332626104,1.9128350245177745,-0.46038142301589247
1646167795483080000,5.961079833984375,0.6409755983144044,2.0414549746900796,-0.25760756461322304
1646167795493062000,5.971061767578125,0.8311614855617284,2.26070387481451,-0.15691300159022212
1646167795503042800,5.981042724609375,0.9990934554249048,2.4008903441399334,0.0578692745141685
1646167795513024800,5.991024658203125,1.2585142069399355,2.470418638396263,0.28663083000183104
1646167795523007000,6.001007080078125,1.6405688199549913,2.576177937462926,0.3633323768883943
1646167795532988000,6.01098779296875,2.1959078697770833,2.3062603418529033,0.5266742424823343
1646167795542969900,6.020969970703125,2.690360781481862,1.968502551203966,0.7043878939084708
1646167795552950800,6.03095068359375,3.1114035890609024,1.7125819167643785,0.7410359550870954
1646167795562933000,6.04093310546875,3.3612714993327852,1.606723248976469,0.5409988281719387
1646167795572915000,6.0509150390625,3.4828251643806696,1.522297829839587,0.2763105115175247
1646167795582895900,6.060895751953125,3.547802371203899,1.3980693926244974,0.0416493720306782
1646167795592877800,6.0708779296875,3.5659961995422838,1.2175491593450307,-0.13797829175665974
1646167795602858800,6.080858642578125,3.38172158216536,1.0710492690891027,-0.3153475136592984
1646167795612841000,6.090841064453125,3.095090752163529,0.932523426452279,-0.4197330401547253
1646167795622823000,6.100822998046875,2.8307272835493085,0.809569246956706,-0.3953945715814829
1646167795632803800,6.110803955078125,2.527929747122526,0.6432388670712709,-0.3651534548357129
1646167795642785800,6.120785888671875,2.1132932994544507,0.45565702484250065,-0.31313992061242457
1646167795652767000,6.13076708984375,1.735384115681052,0.2983756283313036,-0.27652298522442575
1646167795662749000,6.1407490234375,1.5114970343619585,0.1165858135074377,-0.2196159798711538
1646167795672731000,6.15073095703125,1.3462240545749664,-0.053988195297121996,-0.1919096423000097
1646167795682711800,6.1607119140625,1.1633727479994296,-0.26146657812893387,-0.1752012302137911
1646167795692694000,6.170694091796875,0.9066466423958539,-0.4532511327445507,-0.0983104443654418
1646167795702675700,6.18067578125,0.5040834943592548,-0.5929220537632703,-0.00007279124157503247
1646167795712657000,6.190656982421875,0.04068389256596565,-0.7451514275819062,0.025225334410369393
1646167795722638800,6.200638916015625,-0.4170487695068121,-0.9102239163607359,0.037380467106401916
1646167795732620000,6.2106201171875,-0.9450497305482626,-1.0735229657262564,0.06002336554182693
1646167795742602000,6.22060205078125,-1.3003104446619749,-1.2309253582686186,0.13765196414543315
1646167795752584000,6.230583984375,-1.4545166715115307,-1.3783335955411196,0.14161151542617006
1646167795762564900,6.24056494140625,-1.5427204401433467,-1.3923486768901348,0.04818973815143108
1646167795772547000,6.250547119140625,-1.7527958537310362,-1.3357576056182383,-0.033699586636573076
1646167795782528000,6.260528076171875,-2.1151614314138887,-1.2809037334024906,-0.10971585467271507
1646167795792509700,6.270509765625,-2.5169126785457134,-1.4271020103633403,-0.18734832573384044
1646167795802492000,6.280491943359375,-2.8627532378852365,-1.8252952727526426,-0.1984504422456026
1646167795812472800,6.290472900390625,-2.9107079982370134,-2.11467394015789,-0.0892170373275876
1646167795822455000,6.300455078125,-2.6207301958948372,-2.1374375606298446,0.06030161166104953
1646167795832436000,6.31043603515625,-2.184844623970985,-2.103506649455428,0.15548676817938684
1646167795842418000,6.32041796875,-1.792598871809244,-1.9309213008284567,0.22922858847752212
1646167795852399900,6.33039990234375,-1.5940192502260206,-1.588371599727869,-0.02742138314992189
1646167795862381000,6.340381103515625,-1.6920733817428348,-1.2177923204511403,-0.28567718253880736
1646167795872362800,6.35036279296875,-2.1376561718165874,-0.8194412371516228,-0.4085110966555774
1646167795882343700,6.36034375,-2.4997768348276614,-0.5087368731230497,-0.38067631039917466
1646167795892326000,6.370325927734375,-2.717338220256567,-0.24235271233618258,-0.41822248946130275
1646167795902308000,6.38030810546875,-2.652117267805338,0.2274777992874384,-0.4523559374704957
1646167795912289000,6.3902890625,-2.1278414647668598,0.5708218656361103,-0.42843876304924483
1646167795922270700,6.400270751953125,-1.4689870954126119,0.76771104991436,-0.3360353507705033
1646167795932252000,6.410251953125,-0.8758826708197593,1.0036994879156351,-0.17344269610866903
1646167795942233900,6.42023388671875,-0.4288502664595842,1.1639420723199845,-0.0279459915459156
1646167795952215800,6.4302158203125,-0.06919277869164943,1.3100228603810071,0.2214662839129567
1646167795962196700,6.44019677734375,0.19772563510239125,1.4689011706948278,0.6168439043596387
1646167795972179000,6.450178955078125,0.30945757883787156,1.511154504534602,0.9073056908264756
1646167795982160000,6.460159912109375,0.4138105182379484,1.5826467923402785,1.110742543182522
1646167795992142000,6.47014208984375,0.5247223777621984,1.6505553764402865,1.257166883984208
1646167796002123800,6.480123779296875,0.6236065303623676,1.7217969043552874,1.2667489513218402
1646167796012105000,6.49010498046875,0.7477484583377838,1.869860390666127,1.1985890958745031
1646167796022087000,6.5000869140625,0.7658417489111423,1.9974100812584161,1.1185248676218091
1646167796032067800,6.51006787109375,0.7754325840771198,2.0229022499114273,1.000953257947415
1646167796042049800,6.5200498046875,0.9027087184250354,1.992542182961106,0.9055761636201292
1646167796052032000,6.530031982421875,1.1026894389778374,1.9377163677960634,0.7386640383239835
1646167796062012700,6.5400126953125,1.2664262952387333,1.818440584552288,0.5418268034286797
1646167796071995000,6.549994873046875,1.528676132699847,1.7070581849068402,0.30871508990749713
1646167796081975800,6.559975830078125,1.9864023650318383,1.5524188273370265,0.08091616890691221
1646167796091957800,6.569957763671875,2.477655019390583,1.382008484661579,-0.014477803489938377
1646167796101939700,6.579939697265625,2.864622538888454,1.1967489479005335,-0.07300685708709061
1646167796111921000,6.5899208984375,3.084091803765297,0.9893266791701316,-0.15885609848201274
1646167796121902600,6.599902587890625,3.2306068915903565,0.8050158214360476,-0.30508981208242475
1646167796131883500,6.609883544921875,3.246141145330667,0.6562333732008934,-0.4453847467510029
1646167796141865700,6.61986572265625,3.103119744840264,0.4964677586585283,-0.5405803835641593
1646167796151848000,6.629847900390625,2.9034236864477396,0.2623497907042503,-0.5284712819669395
1646167796161828900,6.639828857421875,2.7479700898855923,0.04756839138269424,-0.45780536198280747
1646167796171810600,6.649810546875,2.563029117554426,-0.04279869276285171,-0.3821064893327653
1646167796181791700,6.659791748046875,2.2910019824445245,-0.057988663110136986,-0.3249209592990577
1646167796191773700,6.669773681640625,1.9182950434893369,-0.09312602746486663,-0.2812859618425369
1646167796201755600,6.679755615234375,1.547887613648176,-0.18762918850183485,-0.14264730648100377
1646167796211736600,6.689736572265625,1.1921277178406715,-0.3914771058768034,0.05811053592413663
1646167796221718800,6.69971875,0.9577017068505287,-0.5989689327120781,0.18870587782263754
1646167796231699700,6.70969970703125,0.7876233726084232,-0.645765755200386,0.2915323383077979
1646167796241682000,6.719681884765625,0.537272647255659,-0.6680173344969749,0.31050343462899327
1646167796251663600,6.72966357421875,0.2075479409366846,-0.8006710702300072,0.3502434704735875
1646167796261644800,6.739644775390625,-0.030427286967635154,-0.9373667748302221,0.38894400720261035
1646167796271626800,6.749626708984375,-0.27390169681012627,-1.06624274559021,0.4023054469484836
1646167796281607700,6.759607666015625,-0.5275742600619793,-1.1493056442022322,0.43009369064942
1646167796291589600,6.769589599609375,-0.7638625577926635,-1.248274552476406,0.45787323958724735
1646167796301571600,6.779571533203125,-1.0450696091800928,-1.2556810293406246,0.40592926346883174
1646167796311552800,6.789552734375,-1.2258324190437793,-1.2039970193326472,0.3935194253593683
1646167796321534700,6.79953466796875,-1.3633610673367977,-1.1355407382220029,0.3986164562374353
1646167796331516000,6.809515869140625,-1.4325363103717565,-1.2003969490140676,0.43789632722437377
1646167796341497600,6.81949755859375,-1.3254787881880998,-1.5056839641690254,0.42177082959264517
1646167796351479800,6.829479736328125,-1.1481599812984467,-1.941554923045635,0.337762905215472
1646167796361460700,6.839460693359375,-0.996381273856759,-2.26684077013433,0.18776728179827332
1646167796371442700,6.849442626953125,-0.9713888714194298,-2.5926725606679915,-0.05124021176323294
1646167796381423600,6.859423583984375,-1.0075824668288231,-2.7432775481551883,-0.3412945864729583
1646167796391405800,6.86940576171875,-1.2460510312080382,-2.4195272400707006,-0.5241420936562121
1646167796401386800,6.87938671875,-2.0509107852995396,-1.574385744473338,-0.6927851343981921
1646167796411368700,6.88936865234375,-3.51301864259243,-0.5294289480179548,-0.8899880608007311
1646167796421350700,6.8993505859375,-5.005438051518798,0.09172960467040538,-0.8944258971177041
1646167796431331600,6.90933154296875,-6.134554894173145,0.39774434957802296,-0.6939991863630711
1646167796441313800,6.919313720703125,-6.318305779936909,0.823284468576312,-0.646511897392571
1646167796451294700,6.929294677734375,-5.108795550140738,0.8367483457833528,-0.5784245957247912
1646167796461276700,6.939276611328125,-3.5130011069357394,0.8782529070824384,-0.5760961527772247
1646167796471258600,6.949258544921875,-2.1431804881960153,0.9817541980892419,-0.6595286153540015
1646167796481239800,6.95923974609375,-1.0163806903123855,0.8244540968775749,-0.7605316598042845
1646167796491221800,6.9692216796875,-0.22810089962184427,0.6973691011875868,-0.8090360168628394
1646167796501203000,6.979202880859375,0.15319617302417754,0.7699749031931161,-0.8376840191982686
1646167796511184600,6.9891845703125,0.31215047118365763,0.9739163440704345,-0.819978851159662
1646167796521166800,6.999166748046875,0.3090793931752443,1.160850536045432,-0.7764872076965869
1646167796531147800,7.009147705078125,0.16406652660667895,1.2307166839540005,-0.7171044598795473
1646167796541129700,7.019129638671875,0.14750819051563738,1.359721834051609,-0.7341204766102135
1646167796551110700,7.029110595703125,0.35271804389357564,1.5908452963650226,-0.8289115146778523
1646167796561092600,7.039092529296875,0.6659072104752063,1.847687721824646,-0.8675126096203922
1646167796571074800,7.04907470703125,1.061124671924114,2.0058570070862767,-0.8185024949967861
1646167796581055700,7.0590556640625,1.531432737931609,2.0208786351293324,-0.7244571607299148
1646167796591037700,7.06903759765625,1.9040619354754684,2.0509984635829923,-0.6520505345582962
1646167796601018600,7.0790185546875,2.1029665512293576,2.106011325752735,-0.5605398333355784
1646167796611000800,7.089000732421875,2.190157927948236,2.034799608454108,-0.35825098197087646
1646167796620982500,7.098982421875,2.3426859924525023,1.9698931287795305,-0.15161314161643386
1646167796630963700,7.108963623046875,2.6561609902381895,1.8934312358677385,-0.030884531499131115
1646167796640945700,7.118945556640625,3.004441928467154,1.7635726838111876,0.0742240508571267
1646167796650926800,7.1289267578125,3.260653070285916,1.5948071857333181,0.1627193497814238
1646167796660908800,7.13890869140625,3.447318382191658,1.3759429010123014,0.18302432505488395
1646167796670889700,7.1488896484375,3.5868566167414184,1.192691781464219,0.20536168293878435
1646167796680871700,7.15887158203125,3.7022599424660205,1.0609364558756351,0.2584758718803525
1646167796690854000,7.16885400390625,3.717347036960721,0.9294108473896979,0.29973288815915583
1646167796700834800,7.178834716796875,3.537265195098519,0.7757470568537712,0.2919521711550653
1646167796710816500,7.18881640625,3.225915518903732,0.6796557498425245,0.23431217535212634
1646167796720797700,7.198797607421875,2.7992782523185014,0.587875876289606,0.10977058053463697
1646167796730779600,7.208779541015625,2.299509698548913,0.40298458831906314,0.05138027782104909
1646167796740761900,7.218761962890625,1.7764327499061823,0.1993611273497343,0.06667484105397016
1646167796750742800,7.22874267578125,1.2889368177324532,-0.028388474616408345,0.06643336044829339
1646167796760724700,7.238724853515625,0.9110369863092899,-0.25199673899412156,-0.023011530818417666
1646167796770705700,7.24870556640625,0.746110628002882,-0.5349333906531334,-0.1676009112779051
1646167796780688000,7.25868798828125,0.7019879931598901,-0.8073509863853454,-0.36242373761087654
1646167796790669600,7.268669677734375,0.6026625265330076,-0.9589064064651727,-0.466983086303249
1646167796800650800,7.278650634765625,0.425038599216938,-1.1354875467300414,-0.5364560701757669
1646167796810632700,7.2886328125,0.0915109934836626,-1.3618582615584134,-0.6984618648603558
1646167796820613600,7.298613525390625,-0.42843817852735516,-1.5167928026825188,-0.788120289279893
1646167796830595800,7.308595947265625,-1.0477151552528143,-1.7291472671180963,-0.80001772088781
1646167796840576800,7.31857666015625,-1.6485434520959854,-1.954173581600189,-0.8012531809668988
1646167796850558700,7.328558837890625,-2.091760682082176,-2.024215670597553,-0.7950235658623278
1646167796860540700,7.338540771484375,-2.277017296233773,-2.0822294681489466,-0.7211858109090477
1646167796870521900,7.34852197265625,-2.28384918808043,-2.0938684680163857,-0.5220594421632587
1646167796880503600,7.358503662109375,-2.355551319244504,-1.9568541989862918,-0.21084232457326724
1646167796890484700,7.368484619140625,-2.5844424924612044,-1.8003122226655481,0.10530415744399652
1646167796900466700,7.378466796875,-2.9112714773386714,-1.6732827565550803,0.33746107272468506
1646167796910449000,7.388448974609375,-3.116903940042853,-1.7141688936948776,0.43114999476931987
1646167796920429800,7.398429931640625,-2.9756045410394667,-2.01958654949218,0.6884415522359311
1646167796930411800,7.408411865234375,-2.548293905237317,-2.226986606390774,0.8437098553590476
1646167796940392700,7.418392822265625,-2.0727911931961773,-2.1063982792437077,0.7430990981619805
1646167796950374700,7.428374755859375,-1.8327315602332352,-1.833657442906499,0.5450736763954163
1646167796960355800,7.43835595703125,-1.9392320330560207,-1.646723543192446,0.4414391143977642
1646167796970337500,7.448337646484375,-2.193894191867113,-1.3965756469354034,0.38245508357472713
1646167796980319700,7.45831982421875,-2.414154899382591,-1.011597839950025,0.3495322534643113
1646167796990300700,7.46830078125,-2.3850784425020217,-0.598875701470673,0.42465332622639834
1646167797000283000,7.478282958984375,-2.0356980185985565,-0.1342570792764425,0.472313706741482
1646167797010263800,7.488263916015625,-1.5693898358821867,0.32089842578470706,0.5334787348654121
1646167797020245800,7.498245849609375,-1.0500935748219489,0.5646610049188137,0.6899444310795515
1646167797030227700,7.508227783203125,-0.46568215977251526,0.7057920616179705,0.9700852414749562
1646167797040209000,7.518208984375,0.08755202672481537,0.7917629566311836,1.2181404032364487
1646167797050190600,7.528190673828125,0.6246382114976644,0.7742728926479816,1.334527187040448
1646167797060172300,7.53817236328125,1.0290537094026804,0.6684329295605421,1.3451327522069214
1646167797070154500,7.548154541015625,1.1555682117283343,0.563153522965312,1.384309308949858
1646167797080135400,7.558135498046875,1.1035288124114275,0.5360170942366123,1.495149126151204
1646167797090117400,7.568117431640625,0.9879255802005529,0.6366378613710403,1.5224429373987018
1646167797100099300,7.578099365234375,0.6413607982397079,0.873937966492772,1.27308136921376
1646167797110080300,7.588080322265625,0.01866729106903076,1.2045651746094226,0.7851550827987491
1646167797120062500,7.5980625,-0.646530309832096,1.5177935041576622,0.23217377508394418
1646167797130043400,7.60804345703125,-1.1859428917258976,1.6812883683562279,-0.24514398702252654
1646167797140025300,7.618025390625,-1.362121880930662,1.7757599652111529,-0.5709020182002336
1646167797150007300,7.62800732421875,-1.2147685887157917,1.884521368703246,-0.711570645019412
1646167797159988500,7.637988525390625,-0.7260925068467855,1.8731909963935613,-0.7702545969173312
1646167797169970200,7.64797021484375,0.004001636856794357,1.823591975966096,-0.7955266930788755
1646167797179951400,7.657951416015625,0.8190262266099453,1.8531190992236137,-0.8996475042235106
1646167797189933300,7.667933349609375,1.7067875512719153,1.788911707729101,-0.9988074780903756
1646167797199915500,7.67791552734375,2.465440849983692,1.6036030711293219,-1.0062283488061279
1646167797209896400,7.687896484375,3.0418051521778104,1.4249106377989054,-0.8940762799624353
1646167797219878400,7.69787841796875,3.4805946288496252,1.332708739441633,-0.7676591735966504
1646167797229859300,7.707859375,3.7509880252778527,1.2764987764418125,-0.5999316402643918
1646167797239841500,7.717841552734375,3.9103006353557106,1.0910311498880385,-0.34188005821071565
1646167797249822500,7.727822509765625,4.029826593968272,0.8139169207721948,-0.10144678789610043
1646167797259804200,7.73780419921875,4.068253062996268,0.5400111323088407,0.06277560512572526
1646167797269786400,7.747786376953125,3.97533454080224,0.4375000213831663,0.06844071821533143
1646167797279767300,7.757767333984375,3.786828569465875,0.4130091387271881,0.03419496893808245
1646167797289749500,7.76774951171875,3.4302713858008382,0.38030572352111336,-0.009339929144829512
1646167797299730200,7.777730224609375,2.9760949549049136,0.33737375976741313,-0.08974602963775395
1646167797309712400,7.78771240234375,2.5243834528177973,0.20533377201855182,-0.1256502867117524
1646167797319693300,7.797693359375,2.052897575202584,0.02170505132973194,-0.041243280014395714
1646167797329675500,7.807675537109375,1.6300000796675682,-0.2093868468016386,0.13552225864036008
1646167797339657200,7.8176572265625,1.2945008816003798,-0.4129045093089342,0.29696472035376353
1646167797349638400,7.827638427734375,0.9979647436559199,-0.6803887402921914,0.4795183043580502
1646167797359620400,7.837620361328125,0.7120867778480052,-1.0081424387991427,0.749429031835869
1646167797369601300,7.847601318359375,0.46696869245171546,-1.2264268778055905,0.7993821994632482
1646167797379583200,7.857583251953125,0.1209820026397705,-1.3749001139611006,0.6590186930704861
1646167797389565200,7.867565185546875,-0.33274668448865413,-1.61418116376698,0.5402424568466841
1646167797399546400,7.87754638671875,-0.941354383161664,-1.8200223007857799,0.45562662970423695
1646167797409528300,7.8875283203125,-1.6341116066396235,-1.7531190943360329,0.3557223402760923
1646167797419509500,7.897509521484375,-2.10699039991796,-1.5991420000672338,0.2683959024680778
1646167797429491200,7.9074912109375,-2.41091197193861,-1.5526222409546375,0.23632687617540357
1646167797439472400,7.917472412109375,-2.6115087785631417,-1.6405255653351545,0.32432562375441193
1646167797449454300,7.927454345703125,-2.7879180693924424,-1.8162942201733587,0.47585623818654565
1646167797459436500,7.9374365234375,-3.180610980799794,-1.927321230509877,0.5683615399371832
1646167797469417200,7.947417236328125,-3.7204917647272344,-1.8950293187141418,0.4735295122720301
1646167797479399400,7.9573994140625,-4.163573385635018,-1.8588520899176597,0.25022951012589034
1646167797489380400,7.96738037109375,-4.271409490975738,-1.7640911547273397,0.04774484392814338
1646167797499362300,7.9773623046875,-4.0449972750931975,-1.4628835178405046,-0.17754311716482044
1646167797509344300,7.98734423828125,-3.8138112689375876,-0.9366606723874806,-0.447058707845211
1646167797519325200,7.9973251953125,-3.711518184676766,-0.45892391768395896,-0.7099214165076613
1646167797529307400,8.007307373046874,-3.635769408470392,-0.07269172672331332,-0.8904653229236602
1646167797539288300,8.017288330078125,-3.335315220299363,0.2083615954071283,-0.9963957407735288
1646167797549270300,8.027270263671875,-2.633312029570341,0.43148821374773977,-1.0412843915529548
1646167797559251200,8.037251220703125,-1.6336679545253514,0.7108084284752607,-1.043423084082082
1646167797569233400,8.0472333984375,-0.6025041211009026,0.9396505018532275,-0.9921129488877951
1646167797579215400,8.05721533203125,0.13511574193239212,1.123802369633317,-0.9433957527961582
1646167797589196500,8.067196533203125,0.48708793589472765,1.2649673286020755,-0.849512623353675
1646167797599178200,8.07717822265625,0.5296346997231245,1.3771359101891516,-0.695557667851448
1646167797609159200,8.0871591796875,0.415569929125905,1.5187480284035204,-0.49523894751593467
1646167797619141400,8.097141357421876,0.28740473698377605,1.7457248924314974,-0.24506679360046982
1646167797629122300,8.107122314453125,0.1781687017172575,1.9690356351673601,0.002240910794585943
1646167797639104300,8.117104248046875,0.1820107640981674,2.108771438115835,0.04976429399177432
1646167797649086200,8.127086181640625,0.19379180278480052,2.2274562697291374,-0.10150850975438952
1646167797659067400,8.1370673828125,0.1673889490276575,2.3130203375071288,-0.22904205292947588
1646167797669049300,8.14704931640625,0.27260464273691176,2.3054653920829296,-0.1876619217276573
1646167797679030500,8.157030517578125,0.5374912584424019,2.296221762919426,-0.02069295167773962
1646167797689012200,8.16701220703125,0.9106032710671425,2.41453016243577,0.17912158199530093
1646167797698993400,8.176993408203124,1.4632254631459711,2.4599276395201684,0.5146481429934502
1646167797708975400,8.186975341796876,2.0318150396853683,2.368581481209397,0.7635352255344391
1646167797718957300,8.196957275390625,2.545097155022621,2.314306870186329,0.9042309595562517
1646167797728938200,8.206938232421875,2.9686235961109397,2.2343606422901154,0.995639953970164
1646167797738920400,8.21692041015625,3.2662399305075405,2.0684645621687174,1.061359941984713
1646167797748901400,8.2269013671875,3.520773494502902,1.9071657467097043,1.107967525511235
1646167797758883300,8.23688330078125,3.7213235393762587,1.622598278978467,1.2041077862307428
1646167797768864500,8.246864501953125,3.8738323146581646,1.3379343651354312,1.2785640384085475
1646167797778846200,8.25684619140625,4.028192855286598,1.1085329043090342,1.2559385112330317
1646167797788828400,8.266828369140624,4.097065315982699,0.9260919321000576,1.1074069690190256
1646167797798809300,8.276809326171875,3.9954438473731275,0.7957710232287645,0.8454373367387801
1646167797808791300,8.286791259765625,3.6708342921108006,0.6473229215145111,0.6136679777372628
1646167797818772200,8.296772216796874,3.1741970221042632,0.42373569992482657,0.42308483480066056
1646167797828754400,8.30675439453125,2.6335820786833763,0.1476513983786106,0.29220775335133076
1646167797838735400,8.3167353515625,2.025085439169407,-0.03507774312198162,0.18549086129888892
1646167797848717600,8.326717529296875,1.407564950722456,-0.15709961020350455,0.053082332498580215
1646167797858699300,8.33669921875,0.8200900564491749,-0.359026788648963,-0.054752822994068265
1646167797868680200,8.34668017578125,0.2744499783426523,-0.6289969912290573,-0.189762035812065
1646167797878662400,8.356662353515626,-0.27237434111237524,-0.8994751433312892,-0.3672398326557129
1646167797888643300,8.366643310546875,-0.7911018623739481,-1.1716373029977083,-0.5615213186535984
1646167797898625300,8.376625244140625,-1.0870704295635223,-1.4716197820037602,-0.7022042662590742
1646167797908607200,8.386607177734374,-1.2305261298179626,-1.6944991475850342,-0.7871243370451033
1646167797918588400,8.39658837890625,-1.3462369140565396,-1.9155431144326924,-0.8101756884172558
1646167797928570400,8.4065703125,-1.4091642026126383,-2.176252736714482,-0.8151357950426638
1646167797938551600,8.416551513671875,-1.6008049648433922,-2.4328397261083126,-0.7354543555624783
1646167797948533200,8.426533203125,-1.883379797452688,-2.5970295868337154,-0.625568624215573
1646167797958514400,8.436514404296876,-2.20352360547781,-2.641767430965602,-0.48154681451097125
1646167797968496400,8.446496337890625,-2.661843127527833,-2.5773607175067066,-0.2718813699636608
1646167797978478300,8.456478271484375,-3.1748733139306307,-2.484980832234025,-0.016465397110581398
1646167797988459300,8.466459228515625,-3.656540393820405,-2.5270447809815404,0.19613858510665594
1646167797998441500,8.47644140625,-3.9525399406701323,-2.6851252189159394,0.4335443060273304
1646167798008422400,8.48642236328125,-3.9323733509540557,-2.798928708228469,0.6962094828236848
1646167798018404400,8.496404296875,-3.6148084535062313,-2.7193232565939427,0.9615282794013619
1646167798028385300,8.50638525390625,-3.1158886255204674,-2.4368325951367615,1.2527069819658994
1646167798038367200,8.5163671875,-2.7904923037946223,-2.1044892307519913,1.4085095380961894
1646167798048348400,8.526348388671876,-2.803340679451823,-1.5674100602418184,1.3448242707796394
1646167798058329300,8.536329345703125,-3.172680772322416,-0.8543085523933172,1.0456541310697793
1646167798068311300,8.546311279296875,-3.8505239197850227,-0.1980535518825054,0.6687322778332978
1646167798078292500,8.55629248046875,-4.360846600794792,0.2712432912558317,0.4810555238626897
1646167798088274200,8.566274169921876,-4.376337599915265,0.6184814424335956,0.39556656714752314
1646167798098255000,8.576255126953125,-3.7539299239486454,0.9455793073803186,0.3387278047248721
1646167798108237300,8.5862373046875,-2.5742624592304226,1.272174483501911,0.2967144901860505
1646167798118218200,8.59621826171875,-1.4103981283217668,1.638773168709874,0.20070680633764712
1646167798128200200,8.6062001953125,-0.6030892275124788,2.013770264428854,0.2056393673690036
1646167798138182100,8.61618212890625,0.12516717936992644,2.27288297290802,0.2101700330685824
1646167798148163300,8.626163330078125,0.6992471700191497,2.369634205132723,0.21819646846204996
1646167798158145300,8.636145263671875,1.036917282384634,2.440966333940625,0.226578658490628
1646167798168126500,8.64612646484375,1.207688275066018,2.528075293073058,0.2463743690676987
1646167798178108200,8.656108154296875,1.440819570070505,2.499805476400256,0.3339317295547575
1646167798188089300,8.66608935546875,1.649965009331703,2.4283780705243347,0.4706037610184401
1646167798198071300,8.6760712890625,1.859576897060871,2.2967694599300623,0.6151094817824662
1646167798208053200,8.68605322265625,2.0598025322854516,2.1419716969281435,0.7160021977260709
1646167798218034200,8.6960341796875,2.0812761129468678,1.9924422297179698,0.7429794903703033
1646167798228016400,8.706016357421875,1.9844675975769757,1.8187416133254766,0.7210530513748526
1646167798237997300,8.715997314453125,1.8563176030039785,1.7347826426565647,0.6203850110325962
1646167798247979300,8.725979248046874,1.8167799578636883,1.695126339572668,0.41911439679972823
1646167798257960200,8.735960205078126,1.9915385588765142,1.5658523094058037,0.21549283552654086
1646167798267942100,8.745942138671875,2.2958196118593213,1.3902391373902558,0.02858852723315358
1646167798277924400,8.75592431640625,2.5668793632417914,1.193318388929963,-0.13420724878534673
1646167798287905300,8.7659052734375,2.7368600823283193,1.0604881275862454,-0.2816469041094184
1646167798297887200,8.77588720703125,2.8733208091288804,0.9619242929816245,-0.4177035801537335
1646167798307868200,8.7858681640625,2.9838802019536494,0.8300649224966764,-0.622562793463096
1646167798317850400,8.795850341796875,2.934424973911047,0.7652823614627122,-0.8261611930564046
1646167798327831300,8.805831298828124,2.6919933511197565,0.6560036560982465,-0.8760479443840682
1646167798337813500,8.8158134765625,2.5270108787119385,0.5427963791131973,-0.870075445845723
1646167798347795200,8.825795166015626,2.5220091249018908,0.44263796879351136,-0.8400134850591421
1646167798357776100,8.835776123046875,2.5646190170943735,0.2895703905850649,-0.7912528882171959
1646167798367758300,8.84575830078125,2.6096768869608638,0.1611713896870613,-0.7313859370797872
1646167798377739300,8.8557392578125,2.593513103145361,0.1088654483884573,-0.6386193905770778
1646167798387721200,8.86572119140625,2.472570847994089,-0.0012526304095983505,-0.5403663754872977
1646167798397702100,8.8757021484375,2.2592016535580157,-0.1601958226531744,-0.4744376400928944
1646167798407684400,8.885684326171875,1.837469110149145,-0.33981647674441334,-0.36667540370598434
1646167798417666300,8.895666259765624,1.4242512971073389,-0.5941080486774444,-0.21858751360625028
1646167798427647200,8.905647216796876,0.9758405901312828,-0.842300134691596,-0.13444222658500074
1646167798437629200,8.915629150390625,0.5403121610820293,-0.8810621192842721,-0.09595770722683518
1646167798447610400,8.9256103515625,0.1577373235851526,-0.983242390820384,0.01811162994764745
1646167798457592300,8.93559228515625,-0.18542086480259895,-1.220626082572341,0.14922347000092268
1646167798467573200,8.9455732421875,-0.5054056828737259,-1.5366636243224143,0.2762523515895009
1646167798477555200,8.95555517578125,-0.8920704200327396,-1.648158252170682,0.326442177516967
1646167798487536000,8.9655361328125,-1.216843641424179,-1.635640131381154,0.252955866349861
1646167798497518300,8.975518310546875,-1.4503881934046745,-1.8440367981016634,0.23613968304023145
1646167798507500300,8.985500244140624,-1.8159926068782806,-1.9362199917584657,0.20559790284745394
1646167798517481200,8.995481201171875,-2.1718816820234057,-1.9655986464560031,0.22575353277809918
1646167798527463200,9.005463134765625,-2.388800093373656,-2.1311972049355505,0.29960736208334565
1646167798537444400,9.0154443359375,-2.386459667727351,-2.283309674376249,0.17647402662858366
1646167798547426300,9.02542626953125,-2.171148691573739,-2.400695113828778,-0.021822978620976208
1646167798557407500,9.035407470703126,-1.7806296170741318,-2.5749773295015097,-0.2187530063662678
1646167798567389200,9.04538916015625,-1.2663678430497645,-2.7566046472400427,-0.29103571389727295
1646167798577371400,9.055371337890625,-0.8522510353416204,-2.8338100519955156,-0.30900139603558924
1646167798587352300,9.065352294921874,-0.7826578591555357,-2.577704708638787,-0.4362577662371099
1646167798597334300,9.075334228515626,-1.5798890180647371,-1.6743664601385593,-0.6744414492603391
1646167798607315200,9.085315185546875,-3.1592297545969483,-0.6126081664860248,-0.7840838003054261
1646167798617297200,9.095297119140625,-4.954243870854378,0.0495136802315712,-0.700499069776386
1646167798627278300,9.1052783203125,-6.45141135109067,0.38011809199452395,-0.4229020621122792
1646167798637260300,9.11526025390625,-7.100989942577481,0.5479845954060554,-0.09624277124591171
1646167798647242200,9.1252421875,-6.545470860013365,0.7251116791158914,0.081878182339482
1646167798657223200,9.13522314453125,-5.1922565081596375,1.0240773822948337,0.008553747203201055
1646167798667205400,9.145205322265625,-3.5199586709886788,1.2883598946273327,-0.18757256294377148
1646167798677186300,9.155186279296874,-1.9308207630634306,1.4001058668881654,-0.3609962620910257
1646167798687168300,9.165168212890626,-0.6472440110594034,1.4376666589975355,-0.4580427509352565
1646167798697149200,9.175149169921875,0.3143488580107689,1.493563902786374,-0.6289380275834351
1646167798707131100,9.185131103515625,0.9714210201233625,1.5708774440914393,-0.8551265907779335
1646167798717112300,9.1951123046875,1.3359779703706502,1.6139157908290624,-1.033133745257929
1646167798727094300,9.20509423828125,1.389369953340292,1.6026228279203176,-1.1578112414147703
1646167798737076200,9.215076171875,1.2226917829304933,1.6080705719321966,-1.183200534215197
1646167798747057200,9.22505712890625,0.9796423205018043,1.6751625789523124,-1.2302090266928076
1646167798757039400,9.235039306640624,0.8070154708206653,1.761052225422859,-1.2867469064727426
1646167798767020300,9.245020263671876,0.7883405809670686,1.7839058622658253,-1.2702283178701996
1646167798777002200,9.255002197265625,0.8303279573470354,1.7507400902450083,-1.1295379906758665
1646167798786983200,9.264983154296875,1.0127414570271969,1.7106980027139185,-0.9528851003490388
1646167798796965400,9.27496533203125,1.377728615385294,1.7151146501123904,-0.7002936103321612
1646167798806947300,9.284947265625,1.8117875564038752,1.7218600327193736,-0.40098230858594175
1646167798816928300,9.29492822265625,2.288963170093298,1.7671780148267744,-0.13765022884607314
1646167798826910200,9.30491015625,2.656246330434084,1.7790519924938677,0.026901158668100833
1646167798836891100,9.31489111328125,2.9219220506906507,1.7171218982815741,0.17182203610427677
1646167798846873300,9.324873291015624,3.202987647780776,1.6577707146465777,0.2553579225229099
1646167798856854300,9.334854248046875,3.4284599524646997,1.6616899339169262,0.2566511772038415
1646167798866836200,9.344836181640625,3.549474103808403,1.6580729124635456,0.2586499863382429
1646167798876817200,9.354817138671875,3.5396009445697065,1.6068115117818116,0.25997780087590217
1646167798886799400,9.36479931640625,3.473023316812515,1.4735422744989395,0.22058153696767985
1646167798896781300,9.37478125,3.3649580788910387,1.4615075533121824,0.10474975669793785
1646167798906762200,9.38476220703125,3.242868991792202,1.4454817166626452,-0.017733809611201284
1646167798916744200,9.394744140625,3.0363422105968,1.3473895912230014,-0.1411596982717514
1646167798926725000,9.40472509765625,2.845345006966591,1.2289496742814778,-0.26305077858045695
1646167798936707300,9.414707275390626,2.7511440437465904,1.1400438948601483,-0.2852825571980327
1646167798946688300,9.424688232421875,2.5810125180125234,0.9348673592299223,-0.3603671704072505
1646167798956670200,9.434670166015625,2.308562189054489,0.7266933953493833,-0.32059812766388057
1646167798966651100,9.444651123046874,2.099077142575383,0.42792146117687224,-0.115803357892856
1646167798976633300,9.45463330078125,1.8251970730751752,-0.0010597381860017775,0.17289404924996196
1646167798986615300,9.464615234375,1.5543939268022775,-0.4453647634088993,0.4482899301405996
1646167798996596200,9.47459619140625,1.303497258004546,-0.8920973080396651,0.6557621754925698
1646167799006578200,9.484578125,0.8629150526970625,-1.1387146920830011,0.6297970555655658
1646167799016559400,9.494559326171874,0.3497136013805866,-1.2929080594509839,0.45299226261265574
1646167799026541300,9.504541259765626,-0.051043374016880985,-1.6205810939371585,0.2971238016393036
1646167799036522200,9.514522216796875,-0.3662099781513214,-1.9842185912519692,0.11414105070382356
1646167799046504200,9.524504150390625,-0.5979214694857597,-2.269837613862753,0.0033861353069543835
1646167799056486400,9.534486328125,-0.8003098357021808,-2.5114661035776136,-0.08004647340029478
1646167799066467000,9.544467041015626,-1.1199012705415488,-2.6325825462520123,-0.25327596514970063
1646167799076449000,9.554448974609375,-1.5834651229858399,-2.6287124268203974,-0.2559660079512745
1646167799086430000,9.564429931640625,-2.218790148192644,-2.6698417250663042,-0.08640855577811599
1646167799096412000,9.574411865234374,-2.8956413620084525,-2.81487271181345,0.13480119609050453
1646167799106392800,9.584392822265626,-3.403759226450324,-2.950101850992441,0.42774416838120666
1646167799116375000,9.594375,-3.781734461197257,-2.8954414555221795,0.7474445069551467
1646167799126356000,9.60435595703125,-4.133922343736887,-2.679178293210268,1.0748358749557285
1646167799136338000,9.614337890625,-4.446190888342261,-2.336661909857392,1.333454881633818
1646167799146320000,9.62431982421875,-4.820587095558643,-1.8877467604905365,1.3485614114813507
1646167799156301000,9.634301025390625,-5.225563734477758,-1.3582555608913303,1.2626422466553746
1646167799166283000,9.644282958984375,-5.525660195252299,-0.9016159547522663,1.1804781235139816
1646167799176264000,9.654263916015625,-5.51057017814815,-0.6206611245602369,1.14983653620854
1646167799186246000,9.664245849609374,-5.040146376806497,-0.28722967267781496,1.0592636272925884
1646167799196227000,9.67422705078125,-4.236652650371194,0.0650616702362895,0.958482993421331
1646167799206209000,9.684208984375,-3.282610635071993,0.2898690812706947,0.9286901318997144
1646167799216190000,9.69418994140625,-2.2439929785102604,0.4884130470186472,0.958226534442231
1646167799226172000,9.704171875,-1.2393810519248247,0.7757704377293586,0.9896115605261177
1646167799236154000,9.714154052734376,-0.361316945412755,1.0596358946710824,1.0626448672287165
1646167799246135000,9.724135009765625,0.26573358792364593,1.2926497007757425,1.1272349744305015
1646167799256117000,9.734116943359375,0.6797744077861309,1.4248802426606415,1.2420571392662823
1646167799266098000,9.744097900390624,0.9448626835435628,1.4092512963742017,1.4618994752392171
1646167799276079900,9.754079833984376,1.1002069745123386,1.3882616998374462,1.6770080606885254
1646167799286061000,9.76406103515625,1.1394295623540878,1.5098966134279965,1.7988912499517202
1646167799296043000,9.77404296875,1.1383669015586375,1.6923013452798128,1.8019022683359682
1646167799306024200,9.784024169921874,1.0775830547720193,1.8816782542318105,1.6823055825747548
1646167799316006000,9.794005859375,0.9997358449816703,2.0041548793435098,1.483715731858462
1646167799325988000,9.803988037109375,0.9491261862069368,2.085154415684938,1.231980128018558
1646167799335969000,9.813968994140625,0.9037450757354497,2.07092130767107,0.9185789991866796
1646167799345951000,9.823950927734375,0.9069032475054264,1.9653999090135097,0.5675304228752851
1646167799355932000,9.833931884765626,0.9671879125982522,1.8967928212553262,0.24511487052589653
1646167799365913900,9.843913818359376,1.0852835461467505,1.8581629386097192,-0.04653137648515403
1646167799375895000,9.85389501953125,1.2791881616562604,1.6838228552699088,-0.2727555224496871
1646167799385877000,9.863876953125,1.5743758076012133,1.5293231984317301,-0.46611382918804883
1646167799395858200,9.873858154296874,1.9867402186840772,1.3862988753318786,-0.5861646519249305
1646167799405840000,9.88383984375,2.466483052513003,1.31449328379333,-0.4719951423116028
1646167799415822000,9.893822021484375,2.886391303104162,1.300041564592719,-0.4272172584302723
1646167799425803000,9.903802978515625,3.08598799277544,1.2142933724194764,-0.5268989911489188
1646167799435785000,9.913784912109374,3.1422359496980903,1.1385779139608143,-0.4807867168586701
1646167799445766000,9.923765869140626,3.104326198020577,1.0101134466111659,-0.3628879941217601
1646167799455748000,9.933748046875,3.030371904015541,0.8544926767885684,-0.21151289904490111
1646167799465729000,9.94372900390625,2.9290286678254605,0.7149591184139251,-0.09906082434132694
1646167799475711000,9.9537109375,2.8771143561929464,0.57417935937047,-0.0291726107314229
1646167799485692000,9.96369189453125,2.8515128819465634,0.38402386726140975,0.01621551400274038
1646167799495673900,9.973673828125,2.826927306744456,0.2508253571271896,0.05869067389965057
1646167799505656000,9.983656005859375,2.7271079191207885,0.13797873014807702,0.06495265690386295
1646167799515637000,9.993636962890625,2.5392694717824456,0.020959785920381543,0.002707505393028259
1646167799525619000,10.003618896484374,2.2453695275604724,-0.04725158051848411,-0.0445322385571897
1646167799535599900,10.013599853515625,1.9237626612454652,-0.08968670066595077,-0.0050350715577602385
1646167799545582000,10.02358203125,1.6626526414692402,-0.17467559890449047,0.07150953120142221
1646167799555563000,10.03356298828125,1.510693901285529,-0.3289823635190725,0.19658172576427457
1646167799565545000,10.043544921875,1.3229086454391479,-0.44043373674750325,0.2624683025173843
1646167799575526000,10.05352587890625,1.0890157184123992,-0.5831482632458209,0.18850860168486833
1646167799585507800,10.0635078125,0.8955518324077129,-0.8169219478070735,0.05061155847087502
1646167799595490000,10.073489990234375,0.6337684434145688,-1.0839333005815743,-0.18186989432275294
1646167799605471000,10.083470947265624,0.3014239099860191,-1.4079519042134283,-0.47673919503353535
1646167799615453000,10.093452880859376,-0.04999883340001106,-1.6144418605297803,-0.7156462969604879
1646167799625433900,10.103433837890625,-0.5267196890592575,-1.7955764263153076,-0.9392648635365068
1646167799635416000,10.113416015625,-1.1797007824659347,-1.9770190351366996,-1.024551941004023
1646167799645397000,10.12339697265625,-1.783521831384301,-2.0429168639361857,-0.9688676093135028
1646167799655379000,10.13337890625,-2.1373498823463914,-2.149911257755756,-0.8930838348589837
1646167799665360000,10.14335986328125,-2.544013451439142,-2.174126830601692,-0.8892940141219645
1646167799675342000,10.153342041015625,-2.728384514927864,-2.09475635676682,-1.0920393770825116
1646167799685323000,10.163322998046874,-2.670200036984682,-2.0494003807365893,-1.2656272538155318
1646167799695305000,10.173304931640626,-2.5027970594316717,-1.8623498689055442,-1.362148184415698
1646167799705287000,10.183286865234376,-2.3566741857945916,-1.5721844350367784,-1.3044938678264617
1646167799715267800,10.193267822265625,-2.469929978096485,-1.0156360094249248,-1.0771955898243932
1646167799725250000,10.20325,-3.027328298535943,-0.3366816858500242,-0.7250980889819562
1646167799735231000,10.21323095703125,-3.6744250100791453,0.22229718177914617,-0.3800611011102795
1646167799745213000,10.223212890625,-4.157314325240254,0.5715116014659405,-0.11015987211316823
1646167799755193900,10.23319384765625,-4.273496234121918,0.7879261549472808,0.05783431279864162
1646167799765176000,10.243176025390625,-3.9846079805821177,1.0188736761718988,0.09999781293049455
1646167799775157000,10.253156982421874,-3.360377180841565,1.1529565679252147,0.1309356067035347
1646167799785139200,10.26313916015625,-2.3992951839029786,1.1445727704614401,0.15292323783431203
1646167799795121000,10.273120849609375,-1.3354232590973376,1.1726648924797773,0.15663104284368454
1646167799805101800,10.283101806640625,-0.45544367435276506,1.2209826409250497,0.1794795103211887
1646167799815084000,10.293083984375,0.19360300221443175,1.1608195563852786,0.16674853223226963
1646167799825065000,10.30306494140625,0.6301584362238645,1.1162725586503743,0.10838877078741788
1646167799835047000,10.313046875,0.838553349378705,1.161083760279417,0.016777385669201613
1646167799845027800,10.32302783203125,0.7387818925499916,1.3037667225956917,-0.09317688086926937
1646167799855010000,10.333010009765625,0.35164544622600075,1.4873305613547563,-0.15077800596654414
1646167799864991000,10.342990966796876,-0.07110591883659362,1.6075743128478526,-0.15838365866467355
1646167799874973200,10.35297314453125,-0.302203662186861,1.7114304086416958,-0.17387186303986235
1646167799884953900,10.362953857421875,-0.2423129648476839,1.7730922073066233,-0.17330533346459268
1646167799894936000,10.37293603515625,0.03508417286276817,1.769993072247505,-0.09222615601569413
1646167799904918000,10.38291796875,0.42907063121199607,1.7370897505551575,0.04708046173527836
1646167799914899000,10.39289892578125,0.9302671719580888,1.6653560552090405,0.29515403593629597
1646167799924881000,10.402880859375,1.399227915009856,1.5494728370130062,0.5459281012676656
1646167799934861800,10.41286181640625,1.9013427396446465,1.47881933811903,0.7545444020882248
1646167799944844000,10.422843994140624,2.401187865781784,1.3381973999857901,0.8364284661792218
1646167799954825000,10.432824951171876,2.8480630337536335,1.2114321377694606,0.8573968737974762
1646167799964807000,10.442806884765625,3.2278578851431607,1.0177712678879498,0.8176452936455607
1646167799974787800,10.452787841796875,3.50955008969903,0.8536772687524556,0.6810982037357985
1646167799984770000,10.46277001953125,3.768454123863578,0.7300123106390237,0.5291448703795671
1646167799994751000,10.4727509765625,3.996330567079782,0.5849176110059022,0.41028614350408316
1646167800004733200,10.482733154296875,4.14227165440917,0.49912791777849197,0.33087548378929493
1646167800014715000,10.49271484375,4.217012130355835,0.41487259451150893,0.3190333625651896
1646167800024695800,10.50269580078125,4.184773410052061,0.37472120138704773,0.23089199164509772
1646167800034678000,10.512677978515624,3.9525317573636767,0.40014848811030385,0.10651596265286206
1646167800044659000,10.522658935546875,3.485101292619109,0.3841191443294287,0.053648149687796826
1646167800054641000,10.532640869140625,2.89001358525455,0.34477848306596276,0.07657982020303607
1646167800064622600,10.54262255859375,2.2270120330929757,0.21945815896093845,0.03448503792583942
1646167800074604500,10.5526044921875,1.4189233800828456,0.030831191593408584,0.022870149586349725
1646167800084585700,10.562585693359376,0.65564300609231,-0.2353068854779005,-0.029371932695806024
1646167800094567400,10.5725673828125,0.15107085143327711,-0.5233750548064708,-0.13601955890432
1646167800104548600,10.582548583984375,-0.1988292124301195,-0.7828466597259044,-0.2880282757095992
1646167800114530600,10.592530517578124,-0.4866612349152565,-0.9837696295648812,-0.485188824275136
1646167800124512800,10.6025126953125,-0.7660913397580384,-1.1386433804124594,-0.6589445318557322
1646167800134493700,10.61249365234375,-1.1435305679321288,-1.3314321436345578,-0.8045254075706004
1646167800144475600,10.6224755859375,-1.5708324359059334,-1.6169032822072504,-0.8892229216471313
1646167800154456600,10.63245654296875,-1.966027685523033,-1.9152724807977675,-0.9008608986012637
1646167800164438500,10.6424384765625,-2.2514695980012416,-2.076058086037636,-0.9795005739435553
1646167800174419700,10.652419677734375,-2.4423867221325635,-2.0794415909960864,-1.0013438647001982
1646167800184401400,10.6624013671875,-2.6717665556490418,-2.006395936268568,-0.8758511797029525
1646167800194382600,10.672382568359374,-2.8738743513584137,-1.9171680852860211,-0.6373131302841007
1646167800204364500,10.682364501953124,-3.0784710412740703,-2.0003926042005418,-0.42137518133856355
1646167800214346800,10.6923466796875,-3.2701451212525368,-2.031114782461524,-0.1915302145283669
1646167800224327700,10.70232763671875,-3.3127374777883287,-1.8840245250970125,0.01772263063006103
1646167800234309600,10.7123095703125,-3.3500480945289133,-1.7683759924396871,0.21539777765423057
1646167800244290600,10.72229052734375,-3.4486341409653423,-1.587496570459008,0.375990782931447
1646167800254272800,10.732272705078126,-3.706037122917175,-1.1782315866962074,0.4808488953746855
1646167800264253700,10.742253662109375,-4.043531294193864,-0.7077765134334564,0.6169748372629285
1646167800274235400,10.7522353515625,-4.272516575434803,-0.3281082110330462,0.815023932166025
1646167800284216600,10.762216552734374,-4.217702450707555,-0.056789808714389794,0.9218355898298323
1646167800294198500,10.772198486328126,-3.7058091593801974,0.16421762551516295,0.925446766064316
1646167800304179700,10.7821796875,-2.7831068697184325,0.3157099172309041,0.8314902791246771
1646167800314161700,10.79216162109375,-1.5689683955997227,0.4337231331929564,0.70552018587403
1646167800324142600,10.802142578125,-0.2936971151262522,0.47741965157836674,0.5798319052394479
1646167800334124500,10.81212451171875,0.7331926942408085,0.5556038382381201,0.4953640352003276
1646167800344106800,10.822106689453125,1.45882635140419,0.6730638042315841,0.4364426212847233
1646167800354087700,10.832087646484375,1.8168161982208488,0.759583273038268,0.5209023810826242
1646167800364069600,10.842069580078125,1.8769617471039295,0.7361825237065553,0.6792016493994742
1646167800374050600,10.852050537109376,1.64790047801733,0.8616285200178623,0.9198813139569014
1646167800384032500,10.862032470703125,1.355482296785712,1.0326590404182672,1.2442482195697724
1646167800394013700,10.872013671875,1.0635416699379683,1.0901900228887795,1.520151173199713
1646167800403995400,10.881995361328125,0.8037620219826698,1.265453066292405,1.6085564557529985
1646167800413976600,10.8919765625,0.5010737911492585,1.4870616812855004,1.4593357622310519
1646167800423958500,10.90195849609375,0.1923205611884594,1.7551970696538686,1.092574945263937
1646167800433939700,10.911939697265625,-0.07977847011387347,1.9150392565637826,0.747871573260799
1646167800443921700,10.921921630859375,-0.18727321467101574,1.9297750534027813,0.4047472871426493
1646167800453902600,10.931902587890624,-0.013147066342830657,1.912578419408202,0.018241393807157873
1646167800463884500,10.941884521484376,0.3235714443862438,2.019370568653941,-0.29544242442362006
1646167800473866800,10.95186669921875,0.6783201173245906,2.071284880286455,-0.44060054468177257
1646167800483847700,10.96184765625,1.0624415997415781,1.9015175116896628,-0.49074733518511054
1646167800493829400,10.971829345703124,1.46563369333148,1.7149562446802853,-0.5686025090862066
1646167800503810600,10.981810546875,1.947884710589051,1.5615689329981803,-0.5908874061305076
1646167800513792500,10.99179248046875,2.416646716198325,1.4447668463915586,-0.5705252938423305
1646167800523773700,11.001773681640625,2.791305958265066,1.3409236100792885,-0.6122093033615499
1646167800533755600,11.011755615234375,3.0911177568793295,1.2052093177318572,-0.6556449057884514
1646167800543736600,11.021736572265626,3.337342342212796,1.0411784469604493,-0.645485038562864
1646167800553718500,11.031718505859375,3.486902789083123,0.9312018224596976,-0.6041808221414685
1646167800563699500,11.041699462890625,3.5075773283213376,0.8604922094643116,-0.5866354477744549
1646167800573681700,11.051681640625,3.478523083272576,0.8074047623991966,-0.4490973010007292
1646167800583663600,11.06166357421875,3.4328765998631714,0.6769137576580048,-0.2739706338604912
1646167800593644500,11.07164453125,3.343953869307041,0.5175660762667655,-0.21335195104032753
1646167800603626500,11.08162646484375,3.1888211752623317,0.3780915546029806,-0.26313644756991417
1646167800613607700,11.091607666015625,2.9374504592120645,0.2451788756728172,-0.2498268476091325
1646167800623589600,11.101589599609374,2.653935130882263,0.04884907884299755,-0.13198701545260846
1646167800633570600,11.111570556640626,2.3337778788536787,-0.16530395944714546,-0.009382854971103369
1646167800643552500,11.121552490234375,1.9839567254453896,-0.33915947414040565,0.09387100061327218
1646167800653533700,11.13153369140625,1.6299521488726139,-0.5563000038087368,0.08019969120062888
1646167800663515600,11.141515625,1.2318553325951098,-0.7905413058817387,0.05769347955584526
1646167800673496600,11.15149658203125,0.7617670468181371,-1.005799675065279,0.04645597316138446
1646167800683478500,11.161478515625,0.1656593487560749,-1.2294172917932271,0.01734210687987506
1646167800693460700,11.171460693359375,-0.4590975206851959,-1.4949971504598856,0.010359938108641654
1646167800703441700,11.181441650390624,-1.1113894627839327,-1.7100485988944767,0.07570289123803377
1646167800713423600,11.191423583984376,-1.7263643584012984,-1.8200538649678228,0.1357718677535653
1646167800723404500,11.201404541015625,-2.215377124878764,-1.8658400491088627,0.12718326843269168
1646167800733386500,11.211386474609375,-2.7057734546691177,-1.8350261009111999,0.08079363850578665
1646167800743367700,11.22136767578125,-3.289523190939426,-1.819774171243608,0.0020985797144472598
1646167800753349600,11.231349609375,-3.684808456927538,-1.9645818706288933,-0.13409947756193577
1646167800763330800,11.241330810546875,-3.830427472695708,-2.235315458796918,-0.2436280660342425
1646167800773312500,11.2513125,-3.79360843886435,-2.4463813447266816,-0.3391916959095746
1646167800783293400,11.26129345703125,-3.5552053409367796,-2.42909586340487,-0.491691557232663
1646167800793275600,11.271275634765624,-3.1814065150916573,-2.194801077578962,-0.6288495455823838
1646167800803257600,11.281257568359376,-2.8997920519471165,-1.7173992539182303,-0.6059627371221781
1646167800813238500,11.291238525390625,-3.073465195810795,-1.0484139511719346,-0.5348091066863387
1646167800823220500,11.301220458984375,-3.8965211163282394,-0.2842521181717515,-0.4699395980212837
1646167800833201700,11.31120166015625,-4.890507604002952,0.25951398275643583,-0.3108415805421769
1646167800843183600,11.32118359375,-5.2340796338886015,0.5275941338062287,-0.256178627788648
1646167800853164800,11.331164794921875,-4.7216941751301285,0.7407210439190268,-0.16580547922849653
1646167800863146500,11.341146484375,-3.5709693117797374,0.8413736674964427,-0.18468568239584565
1646167800873127700,11.351127685546874,-2.134885538059473,0.8948255639597773,-0.35273075724467634
1646167800883109600,11.361109619140626,-0.8409680093050003,0.9778297181218862,-0.5963461099278181
1646167800893090600,11.371090576171875,0.29710896939635273,0.9852157367199659,-0.8342799098432063
1646167800903072500,11.381072509765625,1.2209779647499321,0.8555091603547335,-0.9822965613376349
1646167800913053400,11.391053466796874,1.8495751430064438,0.7620569696754217,-1.0825041445612906
1646167800923035600,11.40103564453125,2.2064748564988372,0.8149614613890648,-1.1784810314126313
1646167800933017600,11.411017578125,2.2775538873285055,0.970856956499815,-1.2280480492666364
1646167800942998500,11.42099853515625,2.007005008077621,1.1604279267191886,-1.127722757947445
1646167800952980500,11.43098046875,1.4855249732375144,1.3421563667446375,-0.8466444475062191
1646167800962961700,11.440961669921874,1.017336383602023,1.453956699541211,-0.4946493110597133
1646167800972943600,11.450943603515626,0.6856406694710254,1.5953051983833313,-0.18052658995501697
1646167800982924800,11.4609248046875,0.31725860797762867,1.8114713300615548,0.13146394142657516
1646167800992906500,11.470906494140625,0.07274608725905418,1.9499778834760189,0.4229991292785853
1646167801002887400,11.480887451171874,-0.0523193853020668,2.06758251863718,0.6642160425178706
1646167801012869600,11.49086962890625,-0.02279869178533554,2.103345905935764,0.8892427223261445
1646167801022850600,11.5008505859375,0.18890286169946194,2.016962922990322,1.1339764115147293
1646167801032832500,11.51083251953125,0.6338993763178586,1.8780752613037823,1.340398417161405
1646167801042813400,11.5208134765625,1.244249534744024,1.7071996392041444,1.434286661170423
1646167801052795600,11.530795654296876,2.0015835675507785,1.5318606079548596,1.3739837297685444
1646167801062778000,11.540778076171875,2.7539550095140934,1.2912655529409647,1.2100810884866864
1646167801072759000,11.550759033203125,3.2757781587034462,1.0788058745652436,0.9722148008495569
1646167801082741000,11.560740966796875,3.6368776619732377,1.01187753367424,0.707961806872487
1646167801092722000,11.570721923828126,3.8835084900200365,0.9650012162089348,0.5317395630478858
1646167801102704000,11.5807041015625,3.9279789153873916,0.8550508951932191,0.4001872857507318
1646167801112685000,11.59068505859375,3.854764041572809,0.7147381691396236,0.2869687567193061
1646167801122667000,11.6006669921875,3.7975972162395712,0.5859294183969498,0.177530842205137
1646167801132648000,11.61064794921875,3.6615234429299828,0.4634229826688766,0.04622632912397384
1646167801142630100,11.620630126953126,3.4346950474619864,0.2817559174418449,-0.07229410570785402
1646167801152611000,11.630611083984375,3.077709409251809,0.06917816564440726,-0.2276506716363132
1646167801162593000,11.640593017578125,2.635081961852312,-0.10744622924029827,-0.3662738371677696
1646167801172574000,11.650573974609374,2.1414187392204997,-0.32698154509067534,-0.4223533056557178
1646167801182556000,11.660555908203126,1.6613374672174452,-0.6185872408956289,-0.45098077665977176
1646167801192538000,11.6705380859375,1.2314157721340655,-0.8842103541821241,-0.4694164509300142
1646167801202519000,11.68051904296875,0.833292067849636,-1.1120084714651106,-0.4269212711583823
1646167801212501000,11.6905009765625,0.47463761964440343,-1.4200982690811157,-0.3010411212135106
1646167801222482000,11.70048193359375,0.1987076318770647,-1.6929063254356382,-0.1844363838098943
1646167801232464100,11.710464111328125,-0.036226913157105446,-1.8330998090237378,-0.14329181492961943
1646167801242445000,11.720445068359375,-0.2756429875195026,-1.9468840091139077,-0.09468452721955255
1646167801252427000,11.730427001953124,-0.6016951428055763,-2.114347776943445,0.0492787754971534
1646167801262408000,11.740407958984376,-1.0961252581566572,-2.242842639431357,0.1825920345848426
1646167801272390100,11.75039013671875,-1.7143915965348482,-2.263197737456858,0.28901666569244117
1646167801282371000,11.76037109375,-2.462858432275057,-2.158768810211122,0.41927634589578955
1646167801292353000,11.77035302734375,-3.2884020779550074,-2.0649118381232023,0.5374808831788599
1646167801302334000,11.780333984375,-4.110937189468741,-2.1064277975991366,0.5924813242584467
1646167801312316000,11.79031591796875,-4.646089775830507,-2.2981804957717658,0.6273608413945884
1646167801322298000,11.800298095703125,-4.7804193358212705,-2.4093103819608688,0.6296823431447148
1646167801332279000,11.810279052734375,-4.531566155549884,-2.3046260186493397,0.6899125746365636
1646167801342261000,11.820260986328124,-4.125576540195942,-1.9434882291957736,0.7136364915080368
1646167801352242000,11.830241943359376,-3.7897120159476994,-1.418733994990587,0.7827421764381229
1646167801362224000,11.84022412109375,-3.826686532601714,-0.8077107596084475,0.8233161788888275
1646167801372205000,11.850205078125,-4.0820132928013795,-0.24555501550883052,0.8912104422025382
1646167801382187000,11.86018701171875,-4.309802642256021,0.25375761118680235,1.0872861912060527
1646167801392168000,11.87016796875,-4.077053624567389,0.6345932038009167,1.2208303729727863
1646167801402150000,11.88014990234375,-3.3760704245358704,0.9298086145356297,1.256422787618637
1646167801412131000,11.890131103515625,-2.256141681465506,1.2205945183902978,1.161072289037332
1646167801422113000,11.900113037109374,-1.0100883121699094,1.4657774857163428,0.9181322783324867
1646167801432094200,11.91009423828125,-0.04057575601637363,1.6262100397348402,0.6264525674432516
1646167801442076000,11.920075927734375,0.7065875959098339,1.7244693384349346,0.35204620904661715
1646167801452058000,11.93005810546875,1.2323264572381973,1.7321850273787975,0.27224055866487323
1646167801462039000,11.9400390625,1.4728385101437569,1.6184090105950832,0.32392149993292985
1646167801472021000,11.95002099609375,1.486081438076496,1.557078635841608,0.48785818961486216
1646167801482002000,11.960001953125,1.3935948775589466,1.649499145385623,0.7240336746208369
1646167801491984100,11.969984130859375,1.4031769448965787,1.6584265482068061,0.893530336517468
1646167801501965000,11.979965087890625,1.372179749086499,1.6991835060089826,0.9625973699375987
1646167801511947000,11.989947021484374,1.1926631398916243,1.7800094393491743,0.9844465059131383
1646167801521928200,11.99992822265625,0.9653513448208569,1.8937544764727352,0.9212865776449441
1646167801531910000,12.009909912109375,0.693431761738658,2.0508838972926138,0.7482607917740941
1646167801541891000,12.01989111328125,0.6209674140304327,2.1312445512086153,0.5653270676121115
1646167801551873000,12.029873046875,0.8403858255028724,1.9972920078366994,0.35377573625296355
1646167801561854200,12.039854248046876,1.2303735696047544,1.8514245702654122,-0.11760463516116142
1646167801571836000,12.0498359375,1.6008376980692147,1.765050939670205,-0.5839782843291759
1646167801581816800,12.05981689453125,1.919174748933315,1.6390671832203865,-0.8780120840638875
1646167801591799000,12.069799072265624,2.20061444003284,1.4192594801694154,-1.0764238017342984
1646167801601780000,12.079780029296876,2.4952836150616404,1.1660422594696283,-1.2024905602924525
1646167801611762000,12.089761962890625,2.759720148912072,0.8964525806397199,-1.2771166160792111
1646167801621743900,12.099743896484375,2.9972295128703115,0.6701046621650457,-1.3961939541414379
1646167801631725000,12.10972509765625,3.1525819871455427,0.45349254028499125,-1.507766323401034
1646167801641707000,12.11970703125,3.2228193064540624,0.2216343339562416,-1.5038541183933616
1646167801651688200,12.129688232421875,3.197304925969243,0.030189386558532712,-1.4553633514687419
1646167801661670000,12.139669921875,3.0907629520922897,-0.08072364200949668,-1.3878105950690804
1646167801671651000,12.149651123046874,2.8889029936641455,-0.10840396835654974,-1.26149906796962
1646167801681633000,12.159633056640626,2.6458646371513606,-0.07016688442081212,-1.0638817886125296
1646167801691614000,12.169614013671875,2.4057898066192864,-0.0353247036203742,-0.8802574518378824
1646167801701596000,12.179595947265625,2.1652023503899573,0.005702011033892631,-0.6574836655229329
1646167801711576800,12.189576904296874,1.9348586402773855,-0.001429156020283699,-0.3698844654129818
1646167801721559000,12.19955908203125,1.6397335381746292,-0.060635085965692996,-0.10113668076731264
1646167801731540000,12.2095400390625,1.293365155568719,-0.05483925916850566,0.0177393260365352
1646167801741522200,12.219522216796875,1.0713058741986752,0.00362462023794651,0.0438740303767845
1646167801751504000,12.22950390625,0.9513748419165611,-0.015479308682680128,0.11016754396297036
1646167801761485000,12.239485107421874,0.8062164293974637,-0.08008125245273112,0.22843743809983133
1646167801771467000,12.249467041015626,0.5637199246764183,-0.17270429883152247,0.3943351256564259
1646167801781448200,12.2594482421875,0.17592179957330226,-0.33252018225640056,0.5291428976181894
1646167801791430000,12.269429931640625,-0.3062555679261684,-0.5117345936343074,0.644391617302969
1646167801801410800,12.279410888671874,-0.8188146296858787,-0.7535746802732348,0.7206935704126953
1646167801811393000,12.28939306640625,-1.3502993411898612,-1.0022869907692074,0.7996591897737234
1646167801821374000,12.2993740234375,-1.7785025419175624,-1.1620137346059083,0.8973385696940124
1646167801831356200,12.309356201171875,-2.132142376831174,-1.0953864224880934,0.7494731632385403
1646167801841337000,12.319337158203124,-2.393531798070669,-1.1258099100634456,0.5088972513165325
1646167801851319000,12.329319091796876,-2.6377052960932255,-1.3548513054057956,0.34715854660291223
1646167801861300000,12.339300048828125,-2.8074048601508137,-1.7800944872841238,0.1449497016718611
1646167801871282200,12.3492822265625,-2.7928566948384046,-2.331210658714175,-0.01992532830610871
1646167801881263000,12.35926318359375,-2.6259441311508414,-2.6971535103619098,-0.24017039986103772
1646167801891245000,12.3692451171875,-2.4062702836126086,-2.8213234953880306,-0.4850414516936987
1646167801901226000,12.37922607421875,-2.3048118966102598,-2.7335721466988323,-0.7395958392813802
1646167801911208000,12.3892080078125,-2.507642161375284,-2.445172261197865,-0.8070550721786915
1646167801921189000,12.399189208984374,-3.1793226945549247,-1.8916747475892304,-0.7142899869807064
1646167801931170800,12.4091708984375,-4.15771355369091,-1.1363994008779525,-0.4813597675062716
1646167801941153000,12.419153076171876,-5.0514814252913,-0.5208443672850728,-0.24652028034441173
1646167801951134000,12.429134033203125,-5.456206135275959,-0.15779548351317643,-0.2073056566134095
1646167801961116200,12.4391162109375,-5.1648436005771154,0.2200830128610134,-0.2560471103634685
1646167801971097000,12.44909716796875,-4.276227704912424,0.5692307970523834,-0.33690402336381375
1646167801981079000,12.4590791015625,-3.090223438388109,0.709575087288022,-0.5166860785618425
1646167801991060000,12.46906005859375,-1.874545333611965,0.8072182999163866,-0.6249078222192823
1646167802001042200,12.479042236328125,-0.8790718222498893,0.9401172425821422,-0.7033187303069979
1646167802011023000,12.489023193359374,-0.183984694519639,1.0328133541971445,-0.7847861764211207
1646167802021004800,12.4990048828125,0.282805718755722,1.0765955050393938,-0.7390196468286215
1646167802030986000,12.508986083984375,0.5446919836014509,1.1586468885213137,-0.654746787904948
1646167802040968000,12.518968017578125,0.6970400153636932,1.312210725814104,-0.6254520851638168
1646167802050949000,12.52894921875,0.7945394356071949,1.4771838458716868,-0.6407701388701796
1646167802060930300,12.538930419921876,0.7899018389344215,1.6032500199079514,-0.6138747523557394
1646167802070911500,12.548911376953125,0.7518535555690526,1.7581395528465509,-0.5669655555341392
1646167802080893200,12.55889306640625,0.7046557510644197,1.8278735988080501,-0.44497576409131284
