time,seconds_elapsed,z,y,x,a,ave,std
1.64617E+18,0.019744141,-3.036633887,1.224877603,0.506607021,3.313324792,1.986218043,0.52799496
1.64617E+18,0.029725098,-1.919164228,1.411497322,0.399367202,2.415576574,1.793303159,0.318883615
1.64617E+18,0.039706299,-0.925464156,1.482920636,0.197855509,1.759171486,1.692146418,0.260550639
1.64617E+18,0.049688232,0.347226461,1.341486797,-0.023612675,1.385897038,1.656857526,0.272697465
1.64617E+18,0.059669434,1.364444186,1.094486259,-0.167419636,1.757167449,1.662090253,0.26790785
1.64617E+18,0.069650391,1.915933575,0.784591458,-0.120983391,2.073890595,1.636080363,0.270032129
1.64617E+18,0.079631348,2.015730166,0.440133,0.109759328,2.066139461,1.573609644,0.2309546
1.64617E+18,0.089612549,1.905534931,0.148588971,0.374761716,1.947713634,1.513505099,0.163237475
1.64617E+18,0.099593506,1.613549296,-0.025483985,0.42162163,1.667919531,1.44734973,0.092654289
1.64617E+18,0.109574463,1.445595114,-0.021397885,0.294181318,1.475379867,1.417574109,0.058556811
1.64617E+18,0.11955542,1.378700675,0.12260259,0.009805282,1.384175961,1.438135138,0.098034662
1.64617E+18,0.129537354,1.32644208,0.321008316,-0.329767778,1.404009159,1.405942816,0.149706537
1.64617E+18,0.139518311,1.187428746,0.45347179,-0.601670154,1.40628257,1.33737182,0.2549413
1.64617E+18,0.149499512,1.062136479,0.55001727,-0.798646506,1.438224301,1.28362912,0.289106671
1.64617E+18,0.159480225,0.992991047,0.606897388,-0.941731692,1.497068548,1.233280217,0.301380789
1.64617E+18,0.169461426,0.73813132,0.691051881,-1.038143536,1.449183408,1.186235151,0.293137588
1.64617E+18,0.179442383,0.578216652,0.818400496,-1.068824871,1.465094015,1.147796474,0.281091917
1.64617E+18,0.189424072,0.21586861,0.886845671,-0.906152794,1.286159939,1.092679547,0.267164025
1.64617E+18,0.199405273,-0.546852377,0.974248645,-0.793183199,1.370163322,1.032740279,0.283755022
1.64617E+18,0.20938623,-1.179229658,1.050752916,-0.575381283,1.680990153,0.969103624,0.272063558
1.64617E+18,0.219367188,-0.547432807,0.78955814,-0.453096198,1.062252747,0.886270934,0.133547437
1.64617E+18,0.229348389,0.229241302,0.30930911,-0.606407485,0.718299198,0.882170184,0.128619394
1.64617E+18,0.239329346,0.579395633,0.2253063,-0.606998985,0.868855567,0.932801521,0.151725822
1.64617E+18,0.249310547,0.563058246,0.359557242,-0.653769102,0.934735277,0.989289348,0.210984029
1.64617E+18,0.25929248,0.499177018,0.462280827,-0.768806225,1.026617879,1.055084527,0.276218247
1.64617E+18,0.269273438,0.456716179,0.500855472,-0.821185743,1.064796645,1.121433282,0.334870844
1.64617E+18,0.27925415,0.478413631,0.412400359,-0.660533701,0.913924739,1.198323559,0.395775065
1.64617E+18,0.289235107,0.582960632,0.15043723,-0.330416123,0.686767262,1.305544149,0.446225702
1.64617E+18,0.299216064,0.712259212,-0.041062955,-0.171634368,0.733796775,1.449320456,0.455226433
1.64617E+18,0.309197266,0.838019096,-0.010562311,-0.156993775,0.852663248,1.584870762,0.422631241
1.64617E+18,0.319178223,1.013210244,-0.051895022,-0.11684936,1.021245252,1.687802929,0.351051325
1.64617E+18,0.3291604,1.205073709,-0.160809278,-0.147015913,1.22461257,1.759947878,0.271852049
1.64617E+18,0.339141357,1.394564015,-0.276894157,-0.184698542,1.433733838,1.806386546,0.208786896
1.64617E+18,0.349122314,1.51844057,-0.452263583,-0.162628274,1.592687059,1.822522203,0.184144537
1.64617E+18,0.359103516,1.517097923,-0.715410369,-0.207504832,1.690105429,1.817050287,0.191556687
1.64617E+18,0.369084473,1.528613004,-0.97225601,-0.283750087,1.833699424,1.795264902,0.215630417
1.64617E+18,0.37906543,1.52573365,-1.210508593,-0.389256544,1.98613063,1.752077795,0.244873153
1.64617E+18,0.389046387,1.497214242,-1.414612239,-0.520433375,2.124530341,1.681783777,0.267449197
1.64617E+18,0.39902832,1.402906896,-1.417181797,-0.623395372,2.089299833,1.587421444,0.260979165
1.64617E+18,0.409009521,1.298141284,-1.099385429,-0.80501436,1.881984919,1.485106414,0.244184371
1.64617E+18,0.418990234,1.203579086,-0.957376128,-0.819642167,1.742694738,1.402833999,0.235032878
1.64617E+18,0.428971191,1.082037112,-1.028783368,-0.789632155,1.688999251,1.341174197,0.218051239
1.64617E+18,0.438952393,0.996596378,-0.978549557,-0.770421843,1.595090403,1.300041347,0.184822816
1.64617E+18,0.44893335,0.993891211,-0.985805227,-0.636956499,1.537967901,1.276079369,0.158704577
1.64617E+18,0.458914307,0.974521324,-0.97578243,-0.515443056,1.472251577,1.252066913,0.13341421
1.64617E+18,0.46889624,0.979445921,-0.892073635,-0.45827181,1.401828354,1.233965867,0.113035556
1.64617E+18,0.478877197,0.907532778,-0.851556331,-0.312751981,1.283190449,1.238255502,0.119928242
1.64617E+18,0.488858398,0.781031135,-0.859534178,-0.213852119,1.18090701,1.273553454,0.169612839
1.64617E+18,0.498839355,0.572795212,-0.88465576,-0.161135588,1.066149542,1.331741393,0.220134574
1.64617E+18,0.508820313,0.344914092,-0.983870752,-0.18725915,1.059260769,1.414128055,0.256485549
1.64617E+18,0.518800293,0.129933371,-1.086297107,-0.266776558,1.126096718,1.512935768,0.289005648
1.64617E+18,0.52878125,0.148252871,-1.238050972,-0.278735364,1.277670743,1.606339176,0.299629543
1.64617E+18,0.538763184,-0.035250762,-1.314753396,-0.327843715,1.355470623,1.69093564,0.313972201
1.64617E+18,0.548744385,-0.20324586,-1.242035658,-0.316916224,1.297843345,1.782549743,0.335634005
1.64617E+18,0.558725342,-0.27881285,-1.214998014,-0.336670215,1.291241113,1.899859131,0.35040319
1.64617E+18,0.568706299,-0.473212555,-1.335297879,-0.283335369,1.444724707,2.030731305,0.342969099
1.64617E+18,0.5786875,-0.464711269,-1.550367156,-0.23970249,1.636169968,2.135173101,0.305603401
1.64617E+18,0.588668457,-0.31534839,-1.725560641,-0.174389731,1.762786405,2.197392119,0.257175669
1.64617E+18,0.598650391,-0.262227041,-1.869925565,-0.082319131,1.890016158,2.247175322,0.212538235
1.64617E+18,0.608631348,-0.30538463,-2.024067787,-0.038500776,2.047337902,2.33912751,0.235767283
1.64617E+18,0.618612305,-0.428883,-2.014208364,-0.056240093,2.060130799,2.499672755,0.44030481
1.64617E+18,0.628593506,-0.548731614,-2.051274066,0.031552017,2.123635375,2.73226176,0.690131785
1.64617E+18,0.638574219,-0.58817749,-2.193312885,0.0603768,2.271611659,3.008248385,0.908765069
1.64617E+18,0.648555176,-0.617335195,-2.392401917,-0.029001455,2.470937223,3.282060269,1.047478258
1.64617E+18,0.658537109,-0.72459087,-2.480373631,-0.287265657,2.599962853,3.489446655,1.071382734
1.64617E+18,0.668518066,-0.764997699,-2.341082649,-0.360474357,2.489142666,3.592521414,1.029618357
1.64617E+18,0.678499268,-0.923398455,-2.057951059,-0.111190384,2.258360151,3.602210452,1.019596733
1.64617E+18,0.688480225,-1.490238558,-1.693301462,0.149381766,2.260618436,3.528049827,1.135075874
1.64617E+18,0.698461182,-2.433659226,-1.374501178,0.28557533,2.809538037,3.387939693,1.349160795
1.64617E+18,0.708442383,-3.398198085,-1.277602062,0.403559319,3.652790355,3.187167729,1.554114847
1.64617E+18,0.718424316,-4.257527681,-1.005926224,0.314244119,4.386020849,2.928830259,1.665935668
1.64617E+18,0.728405518,-4.851833882,-0.512566076,0.213476235,4.883501623,2.619273691,1.653965911
1.64617E+18,0.738386475,-5.007849204,-0.137062784,-0.007735599,5.009730502,2.265375153,1.503391799
1.64617E+18,0.748367432,-4.543247241,0.00195055,-0.118817153,4.544801075,1.909867037,1.202655349
1.64617E+18,0.758348633,-3.626310675,-0.138894384,0.112416821,3.630710441,1.607744787,0.822031734
1.64617E+18,0.768329102,-2.548879012,-0.264865865,0.347316587,2.586033054,1.395772411,0.471700216
1.64617E+18,0.778311523,-1.4390964,-0.058987611,0.475462307,1.516753899,1.292830471,0.269849961
1.64617E+18,0.788292236,-0.482169184,0.025284663,0.71108593,0.859517095,1.310418694,0.288928957
1.64617E+18,0.798273193,0.170205175,0.122508482,0.773908662,0.801818401,1.408916307,0.286304902
1.64617E+18,0.808254395,0.694714787,0.227176186,0.780648565,1.069415652,1.526733874,0.252677092
1.64617E+18,0.818235352,0.894981924,0.323706761,0.871490573,1.290455164,1.624887698,0.246532364
1.64617E+18,0.828216309,0.852276754,0.566041646,0.87232169,1.344516248,1.696082927,0.242439787
1.64617E+18,0.838198242,0.794528914,0.889876709,0.83237488,1.454649337,1.758373511,0.223381993
1.64617E+18,0.848179199,0.733290309,1.029202762,0.851069132,1.523578574,1.813432856,0.20913534
1.64617E+18,0.8581604,0.615413872,1.056163835,0.888180427,1.510986681,1.870235778,0.19961863
1.64617E+18,0.868141357,0.474455833,1.155794422,0.928481019,1.55661366,1.956929885,0.212604919
1.64617E+18,0.878122314,0.33505613,1.348511581,0.966576941,1.692636133,2.078835319,0.285215391
1.64617E+18,0.888103516,0.126379478,1.556637906,0.981357162,1.844493216,2.222609282,0.395392988
1.64617E+18,0.898085449,-0.057799863,1.756406445,0.912179873,1.979994077,2.387638489,0.525972412
1.64617E+18,0.908066406,-0.129597855,1.876349168,0.81788144,2.050953889,2.571825472,0.657118705
1.64617E+18,0.918047607,-0.024545828,1.886940997,0.669691551,2.002407451,2.768250488,0.757908739
1.64617E+18,0.92802832,0.320724823,1.844983431,0.603258995,1.967422092,2.979958102,0.8084164
1.64617E+18,0.938009277,0.817354494,1.745051523,0.554730088,2.005242793,3.205083493,0.808563492
1.64617E+18,0.947991211,1.329601421,1.549122708,0.455194522,2.091607792,3.438973221,0.764757304
1.64617E+18,0.957972168,1.854082391,1.428923673,0.418444754,2.377927751,3.669017085,0.664250743
1.64617E+18,0.967953369,2.429522564,1.288060035,0.377696052,2.775668001,3.868496838,0.533166235
1.64617E+18,0.977934326,2.936746695,1.032160443,0.330780974,3.130375757,4.011866591,0.394845549
1.64617E+18,0.987915283,3.368484499,0.893455445,0.26186588,3.494785286,4.086027546,0.273234751
1.64617E+18,0.997896484,3.737166421,0.748745068,0.282155475,3.82186391,4.082155802,0.281727565
1.64617E+18,1.007878174,3.964961031,0.554905042,0.30500491,4.015204052,4.004955111,0.416172282
1.64617E+18,1.017859375,4.099837119,0.355189695,0.187938547,4.119483586,3.863777559,0.591342065
1.64617E+18,1.027840332,4.212934506,0.218651811,0.024523616,4.218675997,3.662288686,0.782318027
1.64617E+18,1.037821289,4.342629392,0.051837155,-0.10215616,4.344140077,3.386313157,0.995181069
1.64617E+18,1.047802246,4.383295164,-0.137796652,-0.240431791,4.392046432,3.043947305,1.178753702
1.64617E+18,1.057784424,4.358353615,-0.280834711,-0.215898201,4.372725283,2.671781692,1.277729709
1.64617E+18,1.067765625,4.199180706,-0.261255858,-0.131852064,4.209365533,2.287395794,1.286362475
1.64617E+18,1.077746338,3.866980549,-0.175737091,0.088589736,3.871985309,1.925990992,1.200429552
1.64617E+18,1.087727295,3.426884666,-0.202354756,0.399898678,3.45606784,1.611244849,1.052439503
1.64617E+18,1.097708496,2.993554624,-0.173936179,0.556780627,3.049857004,1.385767645,0.856304604
1.64617E+18,1.107690186,2.485864045,-0.203451612,0.746275755,2.60342853,1.26841569,0.683105136
1.64617E+18,1.117671387,1.904665747,-0.223335877,0.866999984,2.104594852,1.269127063,0.684497309
1.64617E+18,1.127652344,1.209105156,-0.169949447,0.798518349,1.458920713,1.389108502,0.893631765
1.64617E+18,1.137633301,0.639174102,-0.198986741,0.63178085,0.920481558,1.600880428,1.109852423
1.64617E+18,1.147614502,0.369766794,-0.302627441,0.470225795,0.670390295,1.875472578,1.239643361
1.64617E+18,1.157595459,-0.051591656,-0.39164311,0.351644058,0.528866305,2.195900175,1.299421805
1.64617E+18,1.167577393,-0.245653507,-0.408738037,0.356357277,0.59531751,2.559527314,1.290798892
1.64617E+18,1.17755835,-0.319132585,-0.603141542,0.243535492,0.724523887,2.934066163,1.207199306
1.64617E+18,1.187539307,-0.470989034,-1.039343048,0.375562182,1.201295798,3.273606022,0.997226485
1.64617E+18,1.197520264,-0.926104792,-1.525441096,0.579656476,1.876337457,3.538616192,0.726751406
1.64617E+18,1.207501221,-1.591672979,-1.874034461,0.877213116,2.610542259,3.732995827,0.47116061
1.64617E+18,1.217483154,-2.420211131,-1.99391464,1.042114632,3.304409239,3.880876894,0.294673289
1.64617E+18,1.227464355,-3.065096011,-1.692757272,0.729460595,3.576639974,3.984493242,0.252975353
1.64617E+18,1.237445313,-3.260710938,-1.647564962,0.309524214,3.666403056,4.069296306,0.244020804
1.64617E+18,1.24742627,-3.438808913,-1.783558949,-0.080928298,3.874666263,4.126330683,0.20703841
1.64617E+18,1.257407471,-3.616144086,-2.037337895,-0.348034928,4.1651377,4.122193465,0.212370746
1.64617E+18,1.26738916,-3.728334295,-2.167829776,-0.491697037,4.340705994,3.974880906,0.477239764
1.64617E+18,1.277370361,-3.556248713,-2.029446557,-0.456292692,4.119922482,3.732602434,0.76077883
1.64617E+18,1.287351318,-3.401884665,-1.783570347,-0.281638502,3.8513975,3.51930491,0.90720346
1.64617E+18,1.297332275,-3.564220422,-1.369584472,0.118294006,3.820133808,3.390839194,0.941394739
1.64617E+18,1.307314453,-3.897933906,-0.974860347,0.760635193,4.089352923,3.330466531,0.931231691
1.64617E+18,1.31729541,-4.189940584,-0.5376181,0.997966059,4.340572724,3.253035698,0.896454046
1.64617E+18,1.327276611,-4.29980498,0.035284079,1.043140541,4.424670611,3.112530685,0.822007285
1.64617E+18,1.337257324,-4.082212615,0.646707128,0.931307548,4.236746829,2.913821006,0.713859929
1.64617E+18,1.347238037,-3.632533495,1.072145248,0.591057064,3.833294077,2.658632765,0.648455949
1.64617E+18,1.357220459,-2.384355389,1.246788113,-0.085428386,2.692012115,2.403498548,0.637921427
1.64617E+18,1.367201172,-1.035985554,1.397713419,-0.807188416,1.917921273,2.236339765,0.749644664
1.64617E+18,1.377182373,-0.03363222,1.423848854,-1.385453949,1.986947239,2.189948115,0.781588579
1.64617E+18,1.38716333,1.135302838,1.387728324,-1.836696372,2.566740345,2.166984402,0.790537794
1.64617E+18,1.397144287,2.165785119,1.243549278,-2.026878168,3.216407172,2.115766573,0.779493512
1.64617E+18,1.407126221,2.508252402,1.004661026,-1.920637077,3.315044596,2.018766599,0.691929817
1.64617E+18,1.417107178,2.439134442,0.749836078,-1.451089912,2.935522595,1.901853829,0.546517457
1.64617E+18,1.427088135,2.196364966,0.521431812,-0.919704277,2.437573825,1.774665115,0.425831011
1.64617E+18,1.437069336,1.575432039,0.522039715,-0.290269734,1.684864413,1.632567022,0.41792671
1.64617E+18,1.447050293,0.848667332,0.884069777,0.376277929,1.281951906,1.577836024,0.442603092
1.64617E+18,1.457032471,0.431133409,0.919533596,-0.09923545,1.020424287,1.613676547,0.431565872
1.64617E+18,1.467013428,-0.390320337,1.400601249,0.009800496,1.454004771,1.725455427,0.407521309
1.64617E+18,1.476994385,-0.93556294,1.487041223,0.039613048,1.757310106,1.841131635,0.472971161
1.64617E+18,1.486975586,-1.388034321,1.505791808,-0.164854462,2.054562055,1.96958766,0.592178615
1.64617E+18,1.496956299,-1.455392285,1.679676842,-0.326902671,2.246407432,2.106200461,0.736111546
1.64617E+18,1.506938477,-1.119489767,1.7812647,-0.422845217,2.145916902,2.257199202,0.888486319
1.64617E+18,1.516919189,-0.492391888,1.55450674,-0.329760435,1.663635452,2.440483811,1.02516072
1.64617E+18,1.526901611,0.14134733,1.005586617,-0.04772424,1.016592895,2.676194949,1.088470737
1.64617E+18,1.536882324,0.801772894,0.803937671,0.069817907,1.137554435,2.965054829,0.988404735
1.64617E+18,1.546864014,1.490873349,0.678909023,0.084561905,1.640357131,3.220816969,0.794267931
1.64617E+18,1.556845215,2.062621097,0.560003535,0.062812887,2.138213087,3.393116536,0.594491986
1.64617E+18,1.566826172,2.563458157,0.494592612,0.012806053,2.610766854,3.476007617,0.455212584
1.64617E+18,1.576807129,3.016930239,0.388665556,0.006804894,3.04187036,3.473863686,0.459314597
1.64617E+18,1.58678833,3.4054181,0.322868849,-0.001938987,3.42069006,3.397063767,0.574811318
1.64617E+18,1.596770264,3.743658705,0.309029124,0.004768347,3.756394846,3.262592807,0.697707605
1.64617E+18,1.606751465,3.970089041,0.260231776,-0.035033064,3.978762985,3.074251312,0.787427293
1.64617E+18,1.616732422,4.011321215,0.241009773,-0.132745962,4.020746833,2.847330146,0.820350533
1.64617E+18,1.626713379,3.890051044,0.256880419,-0.228117412,3.905191701,2.612669656,0.786038063
1.64617E+18,1.636695313,3.673914138,0.278511236,-0.281266417,3.695175828,2.38881797,0.700125385
1.64617E+18,1.64667627,3.340696913,0.260331729,-0.290023505,3.363352808,2.191003808,0.570541294
1.64617E+18,1.656657471,2.946111905,0.232020119,-0.265359275,2.967123899,2.026702238,0.42805941
1.64617E+18,1.666638428,2.58101018,0.100681265,-0.181292094,2.589327536,1.902085464,0.297681533
1.64617E+18,1.676619385,2.265522089,-0.01151099,-0.194338038,2.273871173,1.834335833,0.19184268
1.64617E+18,1.686601563,2.051823224,-0.154942724,-0.275152829,2.07598046,1.838729275,0.202087804
1.64617E+18,1.69658252,1.806130554,-0.265589211,-0.418817971,1.872979898,1.918484537,0.368689106
1.64617E+18,1.706563232,1.53852708,-0.496613012,-0.555765824,1.709551319,2.080076896,0.596853473
1.64617E+18,1.716544189,1.275377079,-0.75011548,-0.783256848,1.674141934,2.321054813,0.836833504
1.64617E+18,1.726526123,0.952744961,-0.964694342,-0.96925069,1.666674844,2.630964647,1.078757588
1.64617E+18,1.736507324,0.748202047,-1.182414425,-0.995136315,1.717034206,2.979187741,1.258362383
1.64617E+18,1.746488281,0.456516272,-1.387695006,-0.908545681,1.720337115,3.319582171,1.329297232
1.64617E+18,1.756469482,-0.005282909,-1.537767786,-0.77261402,1.720956158,3.635210262,1.286113381
1.64617E+18,1.766451172,-0.664407327,-1.677818354,-0.631337563,1.911831228,3.922010585,1.138578089
1.64617E+18,1.776432129,-1.45500767,-1.750735999,-0.436003317,2.317805589,4.173458324,0.924382846
1.64617E+18,1.78641333,-2.238020918,-1.784560527,-0.252583526,2.873533077,4.392447043,0.688007374
1.64617E+18,1.796394287,-2.998645225,-1.775902004,-0.163543453,3.488903492,4.577822127,0.468499556
1.64617E+18,1.806375244,-3.69280004,-1.812016689,-0.220696797,4.119330491,4.705398506,0.296871746
1.64617E+18,1.816357422,-4.341277977,-1.953158559,-0.349713967,4.773240272,4.726685705,0.259344645
1.64617E+18,1.826338379,-4.637955569,-2.197863095,-0.412306616,5.148905786,4.592013294,0.466851516
1.64617E+18,1.83631958,-4.544968658,-2.340551319,-0.299165902,5.120978502,4.313246592,0.779013502
1.64617E+18,1.846300537,-4.317689596,-2.264958902,-0.094451577,4.876618026,3.953623021,1.090809417
1.64617E+18,1.856282471,-4.181145283,-1.890741266,0.040864145,4.588959391,3.594103229,1.299802126
1.64617E+18,1.866263184,-4.192786036,-1.414004628,0.115516723,4.426308614,3.270873331,1.409485424
1.64617E+18,1.876244141,-4.428679782,-0.827127115,0.148156462,4.507692781,2.982912859,1.437880691
1.64617E+18,1.886225342,-4.710885196,-0.368773983,0.137038947,4.72728392,2.70566463,1.38340704
1.64617E+18,1.896207275,-4.762144843,-0.109814127,0.109415082,4.764667282,2.407620443,1.228097846
1.64617E+18,1.906188477,-4.327476246,0.188106158,0.074455814,4.332202472,2.107464768,0.950843422
1.64617E+18,1.916169434,-3.389140334,0.504086125,-0.025258433,3.426516163,1.857621445,0.595169444
1.64617E+18,1.926150391,-2.245595738,0.728055331,-0.051804896,2.36123877,1.705554876,0.291876627
1.64617E+18,1.936132324,-1.213618834,0.922546807,0.029619259,1.524742793,1.667507151,0.219831911
1.64617E+18,1.946113281,-0.636131081,1.104158342,0.134941043,1.281420104,1.726506395,0.250615817
1.64617E+18,1.956094238,-0.511989153,1.210623159,0.335836467,1.356660407,1.817893122,0.237954059
1.64617E+18,1.966075439,-0.546005989,1.33912299,0.548561774,1.546703896,1.900269101,0.204218898
1.64617E+18,1.976057373,-0.555703207,1.479765095,0.715852414,1.735210497,1.955043163,0.173132129
1.64617E+18,1.986038574,-0.326148601,1.468458395,0.888095817,1.746842051,1.986845269,0.158413434
1.64617E+18,1.996019287,-0.059506082,1.424380476,1.03738037,1.763110532,2.023150159,0.139752068
1.64617E+18,2.006000244,0.215033913,1.412238495,1.14980541,1.833769242,2.073101044,0.126522883
1.64617E+18,2.015982422,0.435900769,1.400033971,1.217440511,1.905850466,2.136129022,0.146940717
1.64617E+18,2.025963379,0.607917963,1.383955235,1.280046824,1.980761524,2.214619555,0.202210473
1.64617E+18,2.035944336,0.687779435,1.467007904,1.359026253,2.114735231,2.31035396,0.280353783
1.64617E+18,2.045925293,0.679542937,1.603883934,1.336063018,2.195287377,2.422718778,0.385057902
1.64617E+18,2.055907227,0.638638095,1.680919827,1.233240503,2.180420194,2.559072463,0.503565603
1.64617E+18,2.065888184,0.540050295,1.731895105,1.046700937,2.094444515,2.729151244,0.62057877
1.64617E+18,2.075869141,0.61544602,1.735272472,0.908743907,2.053231561,2.936015086,0.712499898
1.64617E+18,2.085850342,0.940075449,1.735851149,0.744794431,2.109890946,3.167829266,0.762897735
1.64617E+18,2.095832275,1.364112178,1.721238686,0.544042141,2.262619389,3.409979146,0.772905402
1.64617E+18,2.105813232,1.751862372,1.701286031,0.32884891,2.464049013,3.648724093,0.750014945
1.64617E+18,2.115794434,2.107760215,1.671917898,0.046948871,2.690755801,3.869590714,0.691556673
1.64617E+18,2.125775391,2.433463995,1.637309526,-0.173017018,2.938105578,4.058793088,0.595274515
1.64617E+18,2.135757324,2.79379193,1.603046606,-0.334806357,3.238383403,4.208820947,0.46974278
1.64617E+18,2.145738281,3.208633545,1.476536196,-0.435593348,3.558824234,4.307743427,0.341662137
1.64617E+18,2.155719238,3.622517713,1.298808223,-0.504220382,3.881208004,4.345847856,0.269678081
1.64617E+18,2.165700439,3.972435897,1.128565639,-0.526642313,4.16308293,4.317227863,0.326640753
1.64617E+18,2.175682373,4.222346477,1.002326446,-0.52539224,4.371373363,4.224886476,0.460330838
1.64617E+18,2.185663574,4.416771317,0.885019917,-0.492304721,4.531389749,4.079883782,0.598877722
1.64617E+18,2.195644531,4.55478395,0.797285519,-0.491344424,4.650068856,3.883675057,0.726606138
1.64617E+18,2.205625244,4.584072588,0.710661713,-0.561699159,4.672715218,3.648017744,0.816427091
1.64617E+18,2.215607178,4.489840645,0.652158671,-0.646442851,4.58277954,3.379065996,0.875431453
1.64617E+18,2.225588135,4.327351158,0.672398911,-0.721918071,4.43838417,3.077118673,0.927369256
1.64617E+18,2.235569336,4.081210744,0.743121383,-0.814960512,4.227608208,2.752293802,0.961908897
1.64617E+18,2.24555127,3.753128544,0.806361391,-0.886775821,3.939868516,2.425970039,0.959579707
1.64617E+18,2.255532227,3.397079895,0.850897283,-0.812345434,3.595008081,2.174945965,0.853147736
1.64617E+18,2.265513428,3.040577656,0.843772545,-0.733751351,3.239669063,2.032643497,0.711304649
1.64617E+18,2.275494385,2.734092956,0.765036278,-0.688273283,2.921346421,1.997662269,0.657663294
1.64617E+18,2.285476318,2.528458155,0.281798588,-0.358893079,2.569302498,2.056737286,0.757009274
1.64617E+18,2.295457275,2.267049444,-0.347284913,0.001633081,2.29349573,2.214319263,0.978822678
1.64617E+18,2.305438232,1.854223261,-0.69294427,0.121480746,1.98319773,2.470080164,1.259887722
1.64617E+18,2.315419434,1.289580376,-0.86148765,0.196845382,1.563306311,2.810459854,1.516110908
1.64617E+18,2.325401367,0.715265408,-0.916647227,0.254117457,1.190135465,3.206762584,1.650331562
1.64617E+18,2.335382568,0.043397243,-0.927933761,0.258971473,0.964370576,3.610744032,1.600950801
1.64617E+18,2.345363525,-0.586233954,-1.242909811,0.394132625,1.429627774,3.996213287,1.363866261
1.64617E+18,2.355345459,-1.318911685,-1.640658252,0.534999405,2.171983401,4.307774068,1.065113837
1.64617E+18,2.365326416,-2.153652782,-1.855587243,0.519468878,2.889856785,4.540890636,0.792326394
1.64617E+18,2.375307373,-2.87396729,-1.974455907,0.420307443,3.51209659,4.739579939,0.571832613
1.64617E+18,2.38528833,-3.572949087,-2.085522372,0.258205092,4.145122268,4.925535379,0.426254566
1.64617E+18,2.395270508,-4.343433694,-2.159180314,-0.075771646,4.851104742,5.046460995,0.352925097
1.64617E+18,2.405251221,-4.901738608,-2.200389984,-0.388527572,5.386994629,5.023953274,0.371361751
1.64617E+18,2.415232178,-5.038723066,-2.199949839,-0.558438696,5.526333613,4.831212167,0.57645969
1.64617E+18,2.425214111,-4.634882738,-2.367730125,-0.513899224,5.229949938,4.505671064,0.912971881
1.64617E+18,2.435195313,-4.008505574,-2.6744726,-0.049485185,4.819063125,4.106525509,1.299687208
1.64617E+18,2.44517627,-3.818659293,-2.408782851,0.524187906,4.545235592,3.681408067,1.646173155
1.64617E+18,2.455157227,-4.138804271,-1.615503645,0.734029145,4.503149076,3.257512677,1.895976466
1.64617E+18,2.465139404,-4.703148465,-0.923860228,0.899758636,4.87674982,2.835806641,2.035845233
1.64617E+18,2.475120361,-5.272864999,-0.391749493,0.947661009,5.37165099,2.40109111,2.017673104
1.64617E+18,2.485101318,-5.292690813,-0.113890583,0.802384742,5.354378431,1.933114795,1.806022675
1.64617E+18,2.495083252,-4.586161669,0.203270994,0.570905197,4.626027529,1.475485413,1.419576781
1.64617E+18,2.505064453,-3.384080128,0.661891253,0.280392666,3.459583557,1.101881988,0.957761589
1.64617E+18,2.51504541,-2.108172303,0.842791133,0.049010663,2.270922588,0.859539761,0.550575842
1.64617E+18,2.525025879,-1.027186162,0.691688133,0.018012627,1.238494384,0.743698846,0.311310231
1.64617E+18,2.535008057,-0.399846875,0.38923751,0.105424003,0.567888707,0.748208614,0.318684685
1.64617E+18,2.544989014,-0.144294489,0.217619253,0.16009196,0.306281692,0.851509623,0.400431464
1.64617E+18,2.554969971,-0.042470191,0.151736914,0.238786398,0.286088714,1.008840068,0.459955729
1.64617E+18,2.564951904,0.093082773,-0.107796358,0.510084196,0.529594509,1.192346726,0.499371749
1.64617E+18,2.574932617,-0.037311201,-0.05637509,0.688577161,0.69188784,1.381237013,0.565785378
1.64617E+18,2.584913818,-0.237294844,0.303998144,0.675789868,0.77808461,1.577764319,0.629895277
1.64617E+18,2.594894775,-0.332096112,0.564532995,0.602580036,0.889993275,1.777200986,0.660130295
1.64617E+18,2.604876953,-0.366275445,0.775297267,0.58171012,1.03616129,1.965361961,0.648488429
1.64617E+18,2.61485791,-0.322373175,0.877190831,0.603570983,1.112513438,2.139540792,0.608183736
1.64617E+18,2.624838867,-0.268515912,1.181229307,0.424505734,1.283592065,2.307079842,0.52761452
1.64617E+18,2.634820801,-0.086920743,1.573989439,0.279068067,1.600898796,2.446401325,0.409736125
1.64617E+18,2.644801758,0.247639713,1.857474372,0.145971263,1.879586146,2.551747671,0.299371277
1.64617E+18,2.654782715,0.707751964,1.999299256,-0.034488107,2.121155295,2.627531178,0.198579722
1.64617E+18,2.664764893,1.299805418,2.031236071,-0.183617688,2.418497375,2.681948797,0.1047562
1.64617E+18,2.67474585,1.803381547,1.936355309,-0.242584329,2.657160899,2.710660524,0.057138781
1.64617E+18,2.684726807,2.139066039,1.748301173,-0.233078542,2.772451283,2.716072027,0.054308129
1.64617E+18,2.694707764,2.367004441,1.429992471,-0.184918395,2.771603021,2.702244878,0.055775933
1.64617E+18,2.704689941,2.489384036,1.22221569,-0.161740276,2.777949601,2.671910202,0.084763047
1.64617E+18,2.714670898,2.57707927,1.063481756,0.008795885,2.78790394,2.623209257,0.134916176
1.64617E+18,2.724651855,2.517128952,0.891613908,0.185422819,2.676806893,2.560424515,0.181656441
1.64617E+18,2.734634033,2.543324885,0.670965371,0.356290569,2.654362252,2.499372022,0.228768127
1.64617E+18,2.74461499,2.560508075,0.484519254,0.40623906,2.637421218,2.442256471,0.252962106
1.64617E+18,2.754595947,2.626996855,0.247801041,0.376130411,2.665331484,2.396727314,0.25470491
1.64617E+18,2.764577881,2.68247149,0.112662503,0.334670711,2.705614647,2.35549423,0.240884494
1.64617E+18,2.774558838,2.694789704,0.085377605,0.286070474,2.711275936,2.320090401,0.210985812
1.64617E+18,2.784539795,2.621232885,0.124178753,0.229392547,2.634179785,2.301469348,0.181843703
1.64617E+18,2.794520752,2.453675009,0.219527133,0.153544037,2.468256263,2.302638341,0.184003541
1.64617E+18,2.80450293,2.277224217,0.246394681,0.044116936,2.290940151,2.322771809,0.21017716
1.64617E+18,2.814483643,2.144334334,0.213431738,-0.148732399,2.16005652,2.347681913,0.219483936
1.64617E+18,2.8244646,2.022642138,0.181017661,-0.381670728,2.066281964,2.355381785,0.214050011
1.64617E+18,2.834446777,1.981048729,0.106797994,-0.635445071,2.083206739,2.334570266,0.248492845
1.64617E+18,2.844427734,2.01559748,0.009231354,-0.836045093,2.182129652,2.276381198,0.34853353
1.64617E+18,2.854408936,2.039493904,-0.131076111,-0.948311947,2.253000639,2.218671904,0.40289858
1.64617E+18,2.864390869,2.098680252,-0.36340252,-0.996690121,2.351576363,2.25543664,0.420732993
1.64617E+18,2.874371826,2.207669035,-0.634783173,-1.048428856,2.525065407,2.409435808,0.648127163
1.64617E+18,2.884352783,2.272401327,-0.870413884,-1.038844743,2.64586971,2.637300903,0.969570644
1.64617E+18,2.89433374,2.22033504,-1.108902907,-0.983444197,2.669590949,2.925774076,1.301522924
1.64617E+18,2.904315918,1.947650902,-1.367858963,-0.887370864,2.540041187,3.256855292,1.584569348
1.64617E+18,2.914296875,1.492428761,-1.526299467,-0.668941317,2.237055242,3.627051911,1.792636476
1.64617E+18,2.924277832,0.976931892,-1.528680224,-0.40190125,1.858166776,4.048151131,1.907567426
1.64617E+18,2.93426001,0.249388602,-1.464654035,-0.215740088,1.501316057,4.51890564,1.88981791
1.64617E+18,2.944240723,-0.870386411,-1.332598849,-0.206762307,1.605036713,4.982267884,1.645381019
1.64617E+18,2.954221924,-2.296674767,-1.193806465,-0.40976464,2.620647997,5.339733558,1.201176772
1.64617E+18,2.964202637,-3.640983344,-1.10901835,-0.810937978,3.89156804,5.475954413,0.932222297
1.64617E+18,2.974185059,-4.535463748,-1.330406308,-0.857483821,4.803716358,5.332724465,1.227817138
1.64617E+18,2.984165771,-5.145128262,-1.903198012,-0.702171533,5.530601447,4.992927651,1.704758734
1.64617E+18,2.994146729,-5.535003193,-2.196617479,-0.55121006,5.980403099,4.560662933,2.030527664
1.64617E+18,3.004128662,-5.813577558,-2.272589543,0.017575514,6.242007382,4.111816962,2.159101118
1.64617E+18,3.014109619,-6.03523878,-2.164419383,0.684468703,6.448047441,3.657573765,2.140911152
1.64617E+18,3.024090576,-6.295159882,-1.584566654,0.984216862,6.565711862,3.194250345,1.982355738
1.64617E+18,3.034072754,-6.032939855,-0.712861562,0.856116552,6.134938504,2.733875267,1.653168916
1.64617E+18,3.044053711,-5.136812269,-0.075966218,0.660767071,5.179693454,2.33663365,1.204611085
1.64617E+18,3.054034912,-3.952361077,0.162987791,0.46413694,3.982856538,2.048895925,0.748407464
1.64617E+18,3.064016846,-2.382194996,0.559155686,0.245954902,2.459268569,1.897733052,0.425534457
1.64617E+18,3.073997803,-1.038475033,0.942453869,0.097356797,1.405748212,1.905577885,0.436398616
1.64617E+18,3.08397876,-0.007200725,1.20346189,0.103832277,1.207954267,2.015875392,0.435515417
1.64617E+18,3.093959717,0.588908142,1.309273211,0.406061512,1.491943394,2.135467932,0.353768824
1.64617E+18,3.103941895,0.750593911,1.320975924,0.761700704,1.699575409,2.2032588,0.281536184
1.64617E+18,3.113922852,0.541838348,1.438967805,0.964017612,1.81481324,2.226500007,0.246397213
1.64617E+18,3.123904053,0.315852248,1.616446186,1.066128691,1.961961085,2.228127189,0.243712202
1.64617E+18,3.133885742,0.310937588,1.767400718,1.206696049,2.162522332,2.231954294,0.239771072
1.64617E+18,3.143866699,0.443001541,1.778392067,1.393460145,2.302316201,2.239573601,0.238651638
1.64617E+18,3.1538479,0.579327828,1.794423165,1.597307624,2.471227807,2.26594853,0.257924407
1.64617E+18,3.163828857,0.75829148,1.688681986,1.735901564,2.537716898,2.322606835,0.344496768
1.64617E+18,3.173811035,0.850876824,1.525492826,1.80071452,2.508723284,2.417810631,0.491131831
1.64617E+18,3.183791992,0.814663355,1.469775615,1.718930117,2.403879674,2.540026031,0.630762844
1.64617E+18,3.193772705,0.760596249,1.406519241,1.466783886,2.169852069,2.632753693,0.670819255
1.64617E+18,3.203754639,0.862112504,1.377354521,1.045099128,1.931987483,2.750945643,0.682861637
1.64617E+18,3.213735596,1.011744847,1.414420808,0.573287562,1.831085057,2.929892431,0.679262634
1.64617E+18,3.223716797,1.305107031,1.509414967,0.138890913,2.000232135,3.123844473,0.611328398
1.64617E+18,3.23369873,1.587330566,1.559324953,-0.246442758,2.238715406,3.317652634,0.525591435
1.64617E+18,3.243679688,1.988877815,1.537912748,-0.513693984,2.566065489,3.505661661,0.434365086
1.64617E+18,3.253660889,2.57189573,1.438243582,-0.738310622,3.03781086,3.662217421,0.339207896
1.64617E+18,3.263641846,3.119369453,1.255391106,-0.933764586,3.489754851,3.751639928,0.274513131
1.64617E+18,3.273623779,3.41369376,1.098143028,-1.029670891,3.730877289,3.776394532,0.260589428
1.64617E+18,3.283604736,3.15051278,0.811671188,-0.71558463,3.331156294,3.745120812,0.28205717
1.64617E+18,3.293585693,3.316851343,0.385666958,-0.290053133,3.351771569,3.703183212,0.360702737
1.64617E+18,3.303567871,3.720995623,0.033163434,-0.04818477,3.721455362,3.612516016,0.517507822
1.64617E+18,3.313548828,3.770270233,-0.012747253,0.048636897,3.770605478,3.434222924,0.717679539
1.64617E+18,3.323530029,3.936514104,0.103817517,0.058255863,3.93831374,3.206521189,0.91022352
1.64617E+18,3.333511719,4.115589984,0.073819269,0.145017269,4.118805677,2.941506657,1.03572673
1.64617E+18,3.34349292,4.129602142,0.093102062,0.08959641,4.131623091,2.648700136,1.074666983
1.64617E+18,3.353473877,3.902925138,0.377132939,-0.29300621,3.932035926,2.338858767,1.048800474
1.64617E+18,3.363454834,3.639815469,0.597860095,-0.601435469,3.737300893,2.029510408,0.987702697
1.64617E+18,3.373437012,3.330800373,0.480345476,-0.598931377,3.418140093,1.73225285,0.869199553
1.64617E+18,3.383417969,2.8152357,0.464515454,-0.580635696,2.911780291,1.493904532,0.680544173
1.64617E+18,3.393398682,2.327192071,0.555590394,-0.503992528,2.445099607,1.352121862,0.491935849
1.64617E+18,3.403380615,1.838577364,0.448561221,-0.419884651,1.938524442,1.302767061,0.395014618
1.64617E+18,3.413361572,1.457349849,0.178955468,-0.273700329,1.493588133,1.339641052,0.463852986
1.64617E+18,3.423342773,1.279354166,-0.148815181,-0.022018501,1.288168411,1.457865516,0.614290997
1.64617E+18,3.43332373,1.113209664,-0.392251013,0.15737302,1.190740476,1.649142278,0.801072033
1.64617E+18,3.443305908,0.844361743,-0.537521361,0.256214156,1.033209399,1.90527339,0.9986605
1.64617E+18,3.453286865,0.44872518,-0.650369742,0.280775601,0.83855234,2.21483822,1.148858376
1.64617E+18,3.463267822,-0.114918757,-0.715212801,0.245090047,0.764725312,2.545195832,1.18015588
1.64617E+18,3.473249756,-0.716188368,-0.707902186,0.237620788,1.03465691,2.873760637,1.092868465
1.64617E+18,3.483230713,-1.259283438,-0.755306034,0.274982478,1.493953595,3.160151884,0.937621768
1.64617E+18,3.493211914,-1.770025221,-0.792379335,0.218401782,1.951551596,3.399432469,0.772692411
1.64617E+18,3.503193848,-2.185212873,-0.737805449,0.062901369,2.307264346,3.601012661,0.615659417
1.64617E+18,3.513174805,-2.535416888,-0.841530612,-0.153520217,2.675832772,3.783815089,0.454737728
1.64617E+18,3.523156494,-2.965948239,-1.176544657,-0.254725726,3.200936032,3.95371488,0.300146502
1.64617E+18,3.533137695,-3.395132268,-1.5874086,-0.176357634,3.752051598,4.059283249,0.17734367
1.64617E+18,3.543119629,-3.70783219,-1.816064795,-0.036810741,4.128857701,4.065736893,0.166913437
1.64617E+18,3.55310083,-3.76699808,-1.718418076,0.118291741,4.142128457,3.978772945,0.291455281
1.64617E+18,3.563081787,-3.730723236,-1.554025678,0.268761448,4.050373364,3.823391495,0.501469743
1.64617E+18,3.573063721,-3.609745325,-1.397084766,0.465549181,3.898569378,3.610409073,0.75035939
1.64617E+18,3.583044678,-3.631221828,-1.237731531,0.623817031,3.886759447,3.368406038,0.97501646
1.64617E+18,3.593025635,-3.7985646,-0.977662253,0.595799801,3.967353514,3.10160642,1.146604744
1.64617E+18,3.603006836,-4.07430871,-0.628052404,0.325838586,4.135288632,2.81613836,1.246532901
1.64617E+18,3.61298877,-4.367135472,-0.006228081,-0.259292157,4.374830676,2.539591011,1.22985169
1.64617E+18,3.622969971,-4.142720567,0.411988856,-0.887098038,4.256619721,2.276253368,1.081702469
1.64617E+18,3.632950684,-3.577622924,0.414584133,-1.262964172,3.816588043,2.046111534,0.857459805
1.64617E+18,3.642932617,-2.879502128,0.451386508,-1.458499604,3.259218216,1.858490692,0.62265155
1.64617E+18,3.652913574,-2.063379806,0.42439241,-1.503902926,2.58831396,1.713704185,0.41321938
1.64617E+18,3.662894531,-1.216284254,0.25914398,-1.463559371,1.920549146,1.640924604,0.301851945
1.64617E+18,3.672875488,-0.629388621,0.110234399,-1.333340169,1.478539031,1.635717791,0.297399881
1.64617E+18,3.682857666,-0.440863945,0.049320496,-1.135160945,1.218763267,1.687234606,0.310061012
1.64617E+18,3.692838623,-0.564652822,0.194158883,-0.93888792,1.112672911,1.794283283,0.314601542
1.64617E+18,3.702819824,-0.915415055,0.65973086,-0.776636334,1.369815143,1.963338917,0.354587435
1.64617E+18,3.712801514,-1.19467448,1.120370057,-0.59176576,1.741454246,2.176388603,0.530418383
1.64617E+18,3.722782715,-1.294858024,1.411029412,-0.393892277,1.955201379,2.416385552,0.768742249
1.64617E+18,3.732763672,-1.211743103,1.510356632,-0.1247982,1.940379627,2.689670307,1.00551303
1.64617E+18,3.742744629,-0.924997123,1.547310106,0.176669111,1.811353145,3.003353361,1.194382853
1.64617E+18,3.752726807,-0.597941928,1.73172004,0.324251316,1.860518144,3.345902953,1.290726164
1.64617E+18,3.762707764,-0.032115386,1.835433513,0.348387321,1.868481015,3.673607876,1.288003435
1.64617E+18,3.772688965,0.771250914,1.799404168,0.377074267,1.993707184,3.973580104,1.177211551
1.64617E+18,3.782670654,1.480602714,1.706571278,0.368911638,2.289250035,4.232971175,0.981966329
1.64617E+18,3.792651611,2.310634319,1.529256563,0.42477951,2.803229249,4.443376692,0.738073779
1.64617E+18,3.802632813,3.198215611,1.2765432,0.627724852,3.500312004,4.577197624,0.516675101
1.64617E+18,3.812613525,3.925413449,1.026010688,0.83055519,4.141423741,4.613433685,0.448025047
1.64617E+18,3.822595947,4.507617125,0.783361039,1.02251459,4.688048928,4.561110764,0.524175079
1.64617E+18,3.83257666,4.901168114,0.61338675,1.174891848,5.077210163,4.439142722,0.614557194
1.64617E+18,3.842557617,5.061359845,0.591174918,1.207367738,5.236849064,4.258321276,0.664225526
1.64617E+18,3.852539551,4.984277775,0.686169077,1.039589132,5.137567372,4.032061861,0.677593687
1.64617E+18,3.862520508,4.753634205,0.716886287,0.76709796,4.868203301,3.787591627,0.675646417
1.64617E+18,3.872501709,4.499880977,0.672287267,0.587655475,4.587617894,3.542675316,0.683399755
1.64617E+18,3.882482666,4.324630209,0.641720864,0.432317577,4.393305202,3.304132481,0.693276462
1.64617E+18,3.8924646,4.088118624,0.591617985,0.297972674,4.141438571,3.064303832,0.689827975
1.64617E+18,3.902445801,3.813281108,0.589777911,0.176886845,3.862672617,2.821706519,0.694927158
1.64617E+18,3.912426758,3.559204055,0.648671998,0.05121336,3.618194533,2.564837067,0.736190337
1.64617E+18,3.922408691,3.383361751,0.747678316,-0.153037548,3.468368506,2.332952251,0.733073065
1.64617E+18,3.932389648,3.167505416,0.718815209,-0.369522683,3.268995698,2.182418731,0.632062317
1.64617E+18,3.942370605,2.862581388,0.540275336,-0.599935549,2.974254916,2.156750246,0.591312983
1.64617E+18,3.952351807,2.546371997,0.352363239,-0.802092189,2.692865032,2.268197288,0.802279244
1.64617E+18,3.96233374,2.220864032,0.224807703,-0.932190907,2.419040189,2.494414108,1.138574726
1.64617E+18,3.972314941,1.979558198,-0.09268939,-0.960414911,2.202189543,2.834946101,1.512837166
1.64617E+18,3.982295898,1.746799244,-0.633119624,-0.726602794,1.995018716,3.279832948,1.872694558
1.64617E+18,3.992277832,1.324661042,-0.971367244,-0.494510341,1.71546544,3.753143427,2.075321208
1.64617E+18,4.002258789,0.612830869,-1.02096305,-0.506410987,1.293978095,4.193608164,2.063489806
1.64617E+18,4.012239502,-0.29378304,-1.148869006,-0.531123842,1.299346376,4.625952465,1.852837678
1.64617E+18,4.022220703,-1.336375445,-1.367238786,-0.445262326,1.963033307,5.032000189,1.488408071
1.64617E+18,4.032202637,-2.470118194,-1.693139842,-0.325284824,3.012310846,5.393656712,1.082909861
1.64617E+18,4.042183594,-3.643255965,-1.809770956,-0.41120545,4.088725334,5.71223363,0.754209115
1.64617E+18,4.052164795,-4.583341351,-1.760752658,-0.667148004,4.955033231,5.971300041,0.575914144
1.64617E+18,4.062146484,-5.425829702,-1.879361794,-0.975470222,5.824360124,6.108394113,0.4713617
1.64617E+18,4.072127686,-6.185516435,-2.183796576,-1.098631688,6.651058009,6.037528365,0.554649442
1.64617E+18,4.082108643,-6.135783559,-2.65421424,-0.758256408,6.728123505,5.734416928,0.873263528
1.64617E+18,4.0920896,-5.378965659,-2.898612195,-0.347212688,6.120112815,5.301943966,1.259516772
1.64617E+18,4.102071777,-4.884711485,-2.773522757,0.050843248,5.617421099,4.865438582,1.60839822
1.64617E+18,4.112052734,-4.711514142,-2.487995796,0.582426452,5.359823613,4.483218271,1.823987431
1.64617E+18,4.122033691,-5.04940345,-2.136458779,1.034885777,5.579598542,4.144213949,1.940850205
1.64617E+18,4.132015625,-5.850619295,-1.616219976,1.254704293,6.198080026,3.788692003,1.970746244
1.64617E+18,4.141996826,-6.531827535,-0.784240744,1.155179139,6.679389443,3.370077653,1.855740748
1.64617E+18,4.151977783,-6.227424901,-0.23934184,1.086204899,6.325973956,2.915874284,1.514687724
1.64617E+18,4.16195874,-5.008237327,-0.148598032,1.032419971,5.115702639,2.505727847,1.005474683
1.64617E+18,4.171940918,-3.501528696,0.023384383,0.918009748,3.619943637,2.229613361,0.505794944
1.64617E+18,4.181921875,-2.247739764,0.33619361,0.781627785,2.403393889,2.120645248,0.244318724
1.64617E+18,4.191902832,-1.395713185,0.801583801,0.699771486,1.755058978,2.152669496,0.29501057
1.64617E+18,4.201883545,-1.092751398,1.268960198,0.64687094,1.795217985,2.263187748,0.330262554
1.64617E+18,4.211865479,-0.962761913,1.548331558,0.745515731,1.969780399,2.382816588,0.354834509
1.64617E+18,4.22184668,-0.808982387,1.643438822,0.861839313,2.024379082,2.503219529,0.396128513
1.64617E+18,4.231827637,-0.525415621,1.718158256,0.905405556,2.011936527,2.635942133,0.433992514
1.64617E+18,4.241809814,-0.186747729,1.957362149,0.837942889,2.137355745,2.786406144,0.452021568
1.64617E+18,4.251790527,0.420344304,2.022504191,0.825366828,2.224509594,2.945686305,0.47528236
1.64617E+18,4.261771484,0.958783072,1.961453217,0.881690773,2.354557776,3.121273643,0.500112529
1.64617E+18,4.271752686,1.308809977,1.960139212,0.920379838,2.530262503,3.310205846,0.530713013
1.64617E+18,4.281734619,1.650972725,1.940181297,0.963421327,2.723636366,3.50199904,0.559948494
1.64617E+18,4.29171582,1.905318658,1.89387898,0.981817034,2.860241505,3.680822482,0.56829899
1.64617E+18,4.301696777,2.119479879,1.890481738,0.939677755,2.991506384,3.845592048,0.544877315
1.64617E+18,4.311678711,2.357059386,1.984377581,0.761305055,3.173809812,4.002596843,0.500554442
1.64617E+18,4.321659668,2.598409058,2.0543279,0.511139989,3.351605115,4.135305457,0.434838567
1.64617E+18,4.331640625,2.836207761,2.056280788,0.306506328,3.516576641,4.232596109,0.348970462
1.64617E+18,4.341621582,3.192369223,1.922391373,0.165118374,3.730157359,4.282180487,0.270002071
1.64617E+18,4.35160376,3.562049508,1.775804973,0.042054523,3.980382969,4.275972569,0.283022599
1.64617E+18,4.361584717,3.893462898,1.685335013,-0.105396092,4.243879803,4.210212944,0.397361884
1.64617E+18,4.371565918,4.140194848,1.607610553,-0.246594295,4.448194445,4.07584857,0.557972474
1.64617E+18,4.381547607,4.23802803,1.506625629,-0.355212089,4.511870787,3.86326275,0.748169066
1.64617E+18,4.391528809,4.254310472,1.426935422,-0.431503448,4.507937169,3.575171539,0.965924073
1.64617E+18,4.401509521,4.312130793,1.397685362,-0.509687708,4.56155433,3.221819759,1.182175049
1.64617E+18,4.411490479,4.276211338,1.298842126,-0.533938315,4.500895955,2.796960797,1.372474993
1.64617E+18,4.421472656,4.146161063,1.157407118,-0.413712501,4.324511629,2.372304025,1.435100263
1.64617E+18,4.431453613,3.878502645,1.004060138,-0.2204498,4.012420421,1.999971576,1.361416675
1.64617E+18,4.441434814,3.55838514,0.886715615,-0.080175616,3.668078177,1.699213118,1.207076712
1.64617E+18,4.451415771,3.216276753,0.829393891,0.092635102,3.322786728,1.472906975,1.013327147
1.64617E+18,4.461397461,2.784640655,0.805941704,0.087198391,2.900236054,1.320334604,0.819668093
1.64617E+18,4.471378662,2.178455215,0.801115891,-0.076104312,2.322336251,1.245459766,0.696937748
1.64617E+18,4.481359619,1.398098034,0.80132515,-0.251447983,1.630958674,1.256440118,0.714462248
1.64617E+18,4.491341797,0.699554044,0.629971389,-0.251502087,0.974419372,1.358472996,0.824972175
1.64617E+18,4.501322754,0.280721898,0.135046768,-0.03007482,0.312964708,1.537789926,0.912269427
1.64617E+18,4.511303711,-0.104684363,-0.225934661,0.051745202,0.254328239,1.799112995,0.898160929
1.64617E+18,4.521284912,-0.466210568,-0.379423095,0.010573161,0.601187134,2.103023262,0.836058738
1.64617E+18,4.531266113,-0.709116822,-0.708054746,0.074208415,1.004835847,2.43073915,0.825361995
1.64617E+18,4.541246826,-0.82051968,-1.124577446,0.190118594,1.405016746,2.773559971,0.872524371
1.64617E+18,4.551227539,-0.880002966,-1.530861076,0.333908129,1.797063018,3.09955899,0.90856454
1.64617E+18,4.56120874,-0.934893078,-1.874841686,0.489737464,2.151487671,3.365671103,0.877274485
1.64617E+18,4.571190674,-0.97335871,-2.152727484,0.577616713,2.432139771,3.535773824,0.785463642
1.64617E+18,4.581171875,-1.104733512,-2.341083818,0.572901047,2.651287458,3.631602411,0.698628522
1.64617E+18,4.591152832,-1.360640702,-2.352478488,0.523496781,2.767588668,3.674389492,0.648589847
1.64617E+18,4.601134766,-1.87304545,-2.212856082,0.396973804,2.926195397,3.723588115,0.594328719
1.64617E+18,4.611115723,-2.813094012,-1.712092672,0.043908115,3.29343091,3.793552,0.534512627
1.64617E+18,4.62109668,-3.64014397,-1.304325526,-0.29942384,3.878346018,3.847556539,0.507872565
1.64617E+18,4.631077881,-4.164461859,-1.419811853,-0.54154532,4.433044056,3.806744476,0.520011537
1.64617E+18,4.641059814,-4.230921413,-1.858349401,-0.638851446,4.665006932,3.61494995,0.601029614
1.64617E+18,4.651041016,-3.949436714,-1.980153534,-0.596948496,4.458184146,3.2895148,0.794328665
1.64617E+18,4.661021973,-3.370775825,-1.781484188,-0.553222679,3.852514881,2.912902878,1.013517276
1.64617E+18,4.67100293,-3.049182403,-1.266257368,-0.770756117,3.390425643,2.567583699,1.204779313
1.64617E+18,4.680984863,-2.88547185,-0.766176972,-0.753817403,3.079158266,2.275211712,1.318966919
1.64617E+18,4.69096582,-3.186065739,-0.154097214,-0.670870824,3.259574897,2.032498475,1.370986591
1.64617E+18,4.700946777,-3.547643381,0.342268546,-0.666147668,3.625834254,1.782325635,1.352375649
1.64617E+18,4.710928955,-3.690508714,0.715650023,-0.750686996,3.833476294,1.498592636,1.227734161
1.64617E+18,4.720909912,-3.239062585,1.01169224,-0.726234546,3.470225387,1.202580391,0.955841046
1.64617E+18,4.730891113,-2.237124846,0.959327847,-0.632996436,2.515098802,0.957651629,0.585422948
1.64617E+18,4.740871826,-1.154742867,0.661167907,-0.468374468,1.410655426,0.820644268,0.291368713
1.64617E+18,4.750854004,-0.446696304,0.48292614,-0.214938636,0.692064926,0.797309855,0.249521646
1.64617E+18,4.760834717,-0.068676061,0.385325598,0.079162603,0.399323096,0.865386424,0.299401734
1.64617E+18,4.770815674,0.03855331,0.289793093,0.363796487,0.466705773,0.986620907,0.330023793
1.64617E+18,4.780796875,0.057529813,0.248806419,0.599936207,0.652025893,1.127273455,0.375112224
1.64617E+18,4.790778809,0.085101711,0.2806161,0.698815866,0.757846496,1.279147943,0.451603767
1.64617E+18,4.80076001,0.11480536,0.50405193,0.595390928,0.788504265,1.454190504,0.545165263
1.64617E+18,4.810740967,0.075331428,0.75786887,0.427442263,0.873353844,1.670089473,0.655190432
1.64617E+18,4.820722656,-0.054735799,0.973451649,0.302836261,1.020937766,1.916909077,0.76436497
1.64617E+18,4.830703857,-0.160087686,1.098444641,0.280845159,1.145025196,2.188900412,0.873312383
1.64617E+18,4.840684814,-0.18953473,1.110565287,0.341735572,1.177311289,2.478617402,0.955636519
1.64617E+18,4.850665771,-0.267675954,1.322495388,0.253020639,1.37283062,2.791367779,0.989741576
1.64617E+18,4.860647949,-0.090856329,1.60692374,0.083754023,1.611667929,3.108649597,0.992696357
1.64617E+18,4.870628906,0.261186592,1.850869274,-0.122718435,1.873231251,3.418132359,0.959626092
1.64617E+18,4.880610107,0.767920309,2.01128137,-0.278013333,2.170770777,3.702186533,0.877149922
1.64617E+18,4.890591064,1.554642933,1.949111622,-0.274732923,2.508272103,3.936794227,0.739050118
1.64617E+18,4.900572998,2.336549097,1.790685732,-0.14732129,2.947493958,4.09452228,0.56520996
1.64617E+18,4.910553955,2.938258268,1.590984997,0.036886985,3.341549874,4.154976318,0.462244014
1.64617E+18,4.920534668,3.446979359,1.443060627,0.172847945,3.740851118,4.119539733,0.531621485
1.64617E+18,4.93051709,3.785444422,1.412777717,0.117519587,4.042195097,3.983322768,0.743494844
1.64617E+18,4.940497803,4.092497862,1.334663965,0.039573082,4.304815057,3.761118783,0.985389644
1.64617E+18,4.950479004,4.363913003,1.272465575,0.004203735,4.545648799,3.484456855,1.165774006
1.64617E+18,4.960459717,4.532889513,1.26635323,0.019040727,4.706495553,3.171337864,1.255731601
1.64617E+18,4.97044165,4.547876654,1.238493748,0.051059156,4.713772997,2.853884099,1.228483095
1.64617E+18,4.980422852,4.354951113,1.192058744,0.123733786,4.516847717,2.547429953,1.102023901
1.64617E+18,4.990403809,3.900211788,1.206905016,0.153194566,4.085552628,2.284520889,0.894981397
1.64617E+18,5.000384766,3.319503903,1.256239832,0.140368256,3.552034336,2.086842628,0.663801409
1.64617E+18,5.010366943,2.742826882,1.174089957,0.14724764,2.987184025,1.953496709,0.458157012
1.64617E+18,5.0203479,2.161088485,0.993316041,0.033843087,2.378681474,1.88845837,0.336925964
1.64617E+18,5.030328857,1.642117803,0.774580936,-0.128213123,1.820155243,1.911549602,0.375443286
1.64617E+18,5.040310791,1.427780056,0.50047641,-0.277513458,1.538195775,2.021116032,0.478511627
1.64617E+18,5.050291992,1.338054192,0.108868371,-0.445480206,1.414458892,2.183938469,0.557057613
1.64617E+18,5.060272949,1.376774676,-0.196426827,-0.642497474,1.531957901,2.375200082,0.587535885
1.64617E+18,5.070253906,1.401527424,-0.509123827,-0.704612277,1.649231534,2.607877543,0.663355654
1.64617E+18,5.080236084,1.448226047,-0.976544354,-0.715981301,1.887757077,2.941026993,0.894535045
1.64617E+18,5.090216797,1.434874398,-1.421226396,-0.606763532,2.108770019,3.370722752,1.247704983
1.64617E+18,5.100197998,1.155838845,-1.850122255,-0.403930564,2.21857515,3.843920065,1.541980452
1.64617E+18,5.110178711,0.626866993,-2.246853044,-0.139019325,2.336800634,4.297229532,1.659379551
1.64617E+18,5.120160889,0.089766196,-2.600426244,0.199261539,2.609593796,4.67268043,1.596909923
1.64617E+18,5.130141846,-0.388688352,-2.849536029,0.480696774,2.915819542,4.934761911,1.444613453
1.64617E+18,5.140122803,-0.874267637,-2.977201455,0.630986631,3.166420145,5.106741288,1.287892573
1.64617E+18,5.150104736,-1.61306765,-2.847483773,0.599397314,3.327075024,5.222941664,1.152934488
1.64617E+18,5.160085693,-2.916772413,-2.512729255,0.261623668,3.858732507,5.336654679,1.007206215
1.64617E+18,5.17006665,-4.362348822,-2.403131986,-0.050012424,4.980726034,5.425628014,0.907038764
1.64617E+18,5.180047852,-5.588652366,-2.636898656,-0.253822274,6.184714669,5.395555766,0.926076015
1.64617E+18,5.190029785,-6.100649117,-3.089886169,-0.174501265,6.840743153,5.165051221,0.985899825
1.64617E+18,5.200010986,-5.753895535,-3.530532672,0.11432649,6.751669817,4.743970195,1.075442877
1.64617E+18,5.209991943,-4.927501994,-3.57098334,0.268057501,6.091309608,4.240846627,1.189342387
1.64617E+18,5.2199729,-4.133182339,-3.183866768,0.370095149,5.230408613,3.783310223,1.266997634
1.64617E+18,5.229954834,-3.670668288,-2.779929993,0.535811854,4.635613313,3.425786682,1.311848797
1.64617E+18,5.239935791,-3.758497963,-2.076355023,0.545615601,4.328423905,3.13463381,1.333937113
1.64617E+18,5.249916992,-4.317162942,-1.092792314,0.311507497,4.464205173,2.889254906,1.3173548
1.64617E+18,5.259897949,-4.728458262,-0.337153395,0.275568607,4.748465858,2.655018436,1.221229955
1.64617E+18,5.269879883,-4.666417694,0.165251352,0.315707287,4.680003546,2.410003809,1.002916562
1.64617E+18,5.279861084,-3.851140006,0.442830861,0.15638021,3.879669224,2.18700377,0.664065304
1.64617E+18,5.289842041,-2.527104987,0.720697954,-0.104316261,2.629932896,2.058019151,0.392505284
1.64617E+18,5.299823975,-1.247671326,1.132861874,-0.34617023,1.720434129,2.071724272,0.414037637
1.64617E+18,5.309804688,-0.19847207,1.42238901,-0.485293015,1.51594557,2.190883631,0.464218401
1.64617E+18,5.319785645,0.417080918,1.499008724,-0.564459637,1.655173202,2.340141572,0.463163459
1.64617E+18,5.329766846,0.60010875,1.576678239,-0.355559989,1.724084594,2.483210364,0.450270262
1.64617E+18,5.339748779,0.484563386,1.810657091,0.031226694,1.874634867,2.615713817,0.39947994
1.64617E+18,5.34972998,0.438482603,2.04602126,0.351762716,2.121840474,2.730158266,0.328385849
1.64617E+18,5.359710938,0.57314534,2.158122621,0.544319862,2.298319591,2.821381728,0.267856372
1.64617E+18,5.369691895,0.792092627,2.210771677,0.698278836,2.450003157,2.912954788,0.226761687
1.64617E+18,5.379673828,1.075378823,2.226787577,0.769519853,2.58982303,3.015058347,0.225186756
1.64617E+18,5.389654785,1.224046705,2.347731585,0.803782992,2.766984104,3.13094416,0.270217115
1.64617E+18,5.399635986,1.262729779,2.485810853,0.840335264,2.912027721,3.249964702,0.337450513
1.64617E+18,5.409616943,1.329321435,2.571772981,0.81860296,3.008524979,3.369562485,0.402209507
1.64617E+18,5.419598877,1.473038417,2.603188109,0.75901804,3.085861127,3.482819747,0.442082703
1.64617E+18,5.429580078,1.569334306,2.529003514,0.66216196,3.049119118,3.590417658,0.46282726
1.64617E+18,5.439561035,1.665439642,2.470362524,0.488323615,3.019079356,3.700549328,0.451820442
1.64617E+18,5.449541992,1.783292699,2.441073301,0.258147224,3.034075098,3.804826531,0.399852175
1.64617E+18,5.459523926,2.109099355,2.423584407,0.089761593,3.214050188,3.892595603,0.306457462
1.64617E+18,5.469504883,2.559643567,2.344368831,-0.016418635,3.471038746,3.946349947,0.216731202
1.64617E+18,5.47948584,2.986485416,2.265083113,-0.053979647,3.748681161,3.94803062,0.213073112
1.64617E+18,5.489468018,3.37169937,2.064471109,-0.170151034,3.95718953,3.886970655,0.321402499
1.64617E+18,5.499448975,3.659971537,1.841944794,-0.295900763,4.108005543,3.759671853,0.480902145
1.64617E+18,5.509429688,3.778822373,1.648378617,-0.38992151,4.141097605,3.564921769,0.661013768
1.64617E+18,5.519410645,3.847376854,1.527065775,-0.432059693,4.161840232,3.321087223,0.831296353
1.64617E+18,5.529393066,3.893317936,1.39544372,-0.347749644,4.150435826,3.044956776,0.955495071
1.64617E+18,5.539374268,3.878252469,1.187709317,-0.217119743,4.061851378,2.743169113,1.032188498
1.64617E+18,5.549355225,3.784082486,0.97553547,-0.175960561,3.91176582,2.441331365,1.043700705
1.64617E+18,5.559336182,3.653722414,0.831992676,-0.180431386,3.751593631,2.171911201,0.974816289
1.64617E+18,5.569318115,3.404431427,0.735693279,-0.183488655,3.48784547,1.94859578,0.832802437
1.64617E+18,5.579299072,3.06647256,0.650343146,-0.146134893,3.138081512,1.784102705,0.656269621
1.64617E+18,5.589280273,2.633809458,0.506658898,-0.106218039,2.684201514,1.694480345,0.510182095
1.64617E+18,5.59926123,2.140917219,0.266070857,-0.116018535,2.160504696,1.686835195,0.495659834
1.64617E+18,5.609243408,1.698697184,-0.061530866,-0.100033542,1.702752148,1.755299732,0.593905997
1.64617E+18,5.619224365,1.355378836,-0.351122884,-0.034078722,1.400535765,1.891322498,0.710597448
1.64617E+18,5.629205322,0.96965401,-0.58361062,0.043128546,1.132559194,2.094539709,0.822891988
1.64617E+18,5.639187256,0.596039309,-0.84205522,0.15658198,1.043473894,2.385189231,0.937148426
1.64617E+18,5.649168213,0.214794259,-1.160174244,0.300535692,1.217564188,2.734236526,1.018876383
1.64617E+18,5.659149414,-0.177977563,-1.43652275,0.458677067,1.518439421,3.094263591,1.054797749
1.64617E+18,5.669130127,-0.552671292,-1.679713666,0.519086783,1.842914715,3.427616029,1.030583943
1.64617E+18,5.679112305,-0.990367128,-1.945617935,0.50957895,2.241857913,3.7111257,0.941778408
1.64617E+18,5.689093262,-1.473630537,-2.083372793,0.536964604,2.607750015,3.948284753,0.834413568
1.64617E+18,5.699074219,-1.887146457,-2.063304403,0.525672993,2.845150067,4.200228806,0.769447039
1.64617E+18,5.709055176,-2.300346149,-1.970323921,0.456154088,3.06297981,4.51994816,0.80345699
1.64617E+18,5.719037109,-2.764806074,-1.996583567,0.39113264,3.432707868,4.876893051,0.867245763
1.64617E+18,5.729018066,-3.31782691,-2.288195108,0.264855271,4.039054416,5.165522451,0.817440507
1.64617E+18,5.738999268,-3.64110434,-2.699652341,0.104453185,4.533946851,5.267585766,0.729396422
1.64617E+18,5.748980225,-3.641875324,-3.152568543,0.097919436,4.817834836,5.15487659,0.900957846
1.64617E+18,5.758962402,-3.47314139,-3.379391093,0.241986473,4.851963802,4.868041988,1.321189734
1.64617E+18,5.768943359,-3.605527999,-2.964551232,0.308860344,4.678011423,4.484089722,1.756320845
1.64617E+18,5.778924316,-4.063336065,-2.161139339,0.320442389,4.613448444,4.111070483,2.047505809
1.64617E+18,5.788905273,-4.981733351,-1.188610065,0.240045531,5.127190549,3.76196965,2.222242433
1.64617E+18,5.798887207,-6.01538374,-0.550513237,0.148357135,6.042343602,3.375405971,2.286428461
1.64617E+18,5.808868408,-6.629426908,-0.17465631,0.096461163,6.632428719,2.904545191,2.170629242
1.64617E+18,5.818849365,-6.307311508,0.376166139,-0.078135635,6.319001867,2.379802125,1.810377533
1.64617E+18,5.828831299,-5.02540415,0.5408394,-0.230746994,5.05968757,1.886780265,1.257329962
1.64617E+18,5.8388125,-3.373753964,0.309980726,-0.35827049,3.40685509,1.533867363,0.679916488
1.64617E+18,5.848793457,-1.836646103,0.321433848,-0.569137968,1.949488819,1.377907845,0.311410093
1.64617E+18,5.858773926,-0.573132481,0.266755917,-0.79082078,1.012441142,1.3955491,0.346329298
1.64617E+18,5.868756104,0.270443081,0.164057759,-0.893479995,0.947819027,1.531439863,0.426636862
1.64617E+18,5.878737061,0.781516288,0.095239074,-0.800021009,1.122440112,1.681184747,0.457211456
1.64617E+18,5.888718262,1.030383497,0.097313542,-0.721358318,1.261553764,1.810198922,0.463327396
1.64617E+18,5.898699219,1.034256539,0.358343483,-0.762072533,1.3337358,1.941915408,0.475693332
1.64617E+18,5.908681396,0.824392138,0.721421008,-0.847436694,1.384998057,2.104639053,0.516395782
1.64617E+18,5.918662109,0.579837531,0.997742041,-0.772669549,1.388783271,2.312256147,0.596480324
1.64617E+18,5.928643066,0.3203367,1.333283909,-0.679961674,1.530558546,2.560412937,0.672080933
1.64617E+18,5.938624268,0.124541741,1.708130783,-0.692204996,1.847259909,2.83617633,0.753730413
1.64617E+18,5.948606201,0.078691844,1.988680247,-0.747271781,2.125901372,3.111055198,0.839327478
1.64617E+18,5.958587402,0.164754509,2.230612103,-0.78773129,2.37134877,3.376346595,0.902873564
1.64617E+18,5.968568359,0.505547722,2.303164714,-0.647447863,2.445267865,3.627308757,0.936795537
1.64617E+18,5.978549316,1.114832297,2.122988764,-0.265742155,2.412581861,3.871429956,0.914778573
1.64617E+18,5.98853125,1.665425613,1.968480339,-0.035106202,2.578718629,4.113530628,0.811146255
1.64617E+18,5.998512207,2.157307798,2.027685977,0.043235806,2.960972254,4.32454505,0.641067149
1.64617E+18,6.008493164,2.72889831,2.124098187,0.144954195,3.461168995,4.469486054,0.452507372
1.64617E+18,6.018474121,3.163559893,2.225814932,0.131357851,3.870351172,4.520268775,0.354348298
1.64617E+18,6.028456299,3.576470247,2.364955692,0.066631806,4.288192469,4.476224017,0.447518838
1.64617E+18,6.038437256,3.994384109,2.272916291,0.049090085,4.596048598,4.33413878,0.65984851
1.64617E+18,6.048418213,4.333047324,2.014997176,0.039538595,4.778815338,4.108814127,0.87994964
1.64617E+18,6.058400146,4.554390566,1.752767797,0.095935094,4.880970387,3.823974111,1.059636528
1.64617E+18,6.068381104,4.644775186,1.510528482,0.148501257,4.886479862,3.492100818,1.188490995
1.64617E+18,6.078362061,4.668886714,1.236977498,0.186981392,4.833588576,3.139908363,1.243658721
1.64617E+18,6.088343262,4.583181192,0.976131098,0.164478103,4.688862848,2.792395843,1.206822863
1.64617E+18,6.098325195,4.343606128,0.764146051,0.025270087,4.410382291,2.455723269,1.095253563
1.64617E+18,6.108306396,3.908224414,0.63822893,-0.267164169,3.968996212,2.165034596,0.907570951
1.64617E+18,6.118287354,3.336445101,0.560244942,-0.564356542,3.429903587,1.95328947,0.680623874
1.64617E+18,6.128268311,2.728970206,0.347983417,-0.8082502,2.867340096,1.821316793,0.479848424
1.64617E+18,6.138250244,2.09815126,0.101688689,-1.037372771,2.342802076,1.763729038,0.373664807
1.64617E+18,6.148231201,1.559351257,-0.192635034,-1.121524926,1.930415178,1.777586546,0.396740069
1.64617E+18,6.158212158,0.98319446,-0.445709047,-1.129273202,1.562237455,1.860193058,0.494030853
1.64617E+18,6.168193359,0.47150692,-0.709926969,-1.065690445,1.364555313,2.024644467,0.624072464
1.64617E+18,6.178175293,0.149029701,-0.966120576,-0.943304787,1.358463374,2.279867614,0.799234677
1.64617E+18,6.188156494,0.083909871,-1.114469893,-0.706372784,1.322137103,2.604530777,0.994554959
1.64617E+18,6.198137451,-0.0974813,-1.448028479,-0.392695615,1.503495568,2.963119067,1.107568016
1.64617E+18,6.208118164,-0.237908592,-1.830371261,-0.146148008,1.851544947,3.302019826,1.127410933
1.64617E+18,6.218100342,-0.351038128,-2.080732508,0.01306348,2.110176815,3.581044981,1.078106112
1.64617E+18,6.228081055,-0.598248217,-2.207418859,0.142132562,2.291462549,3.806295012,0.977918594
1.64617E+18,6.238062256,-1.016894485,-2.243985964,0.29611689,2.481377161,4.009629579,0.844034173
1.64617E+18,6.248043213,-1.621173799,-2.189910675,0.417456985,2.75648029,4.234937653,0.693261871
1.64617E+18,6.258025391,-2.423372225,-2.048135475,0.464395992,3.20675155,4.477737531,0.54151594
1.64617E+18,6.268006348,-3.322651554,-2.03149706,0.417402698,3.916786778,4.664483515,0.36387226
1.64617E+18,6.277987061,-4.006675435,-2.245790383,0.331477834,4.605095009,4.710154029,0.287888512
1.64617E+18,6.287968262,-4.196198475,-2.503500824,0.461586707,4.908019998,4.594947279,0.475962361
1.64617E+18,6.297950195,-3.997403749,-2.689683321,0.850267095,4.892503166,4.369240256,0.73736537
1.64617E+18,6.307931152,-3.645625032,-2.614206347,1.192316226,4.641796493,4.102622622,0.951025821
1.64617E+18,6.317912354,-3.509094747,-2.217107894,1.342996032,4.362677126,3.85171975,1.095654977
1.64617E+18,6.327894287,-3.839955179,-1.541691097,1.257735624,4.324808218,3.636236481,1.182434629
1.64617E+18,6.337875244,-4.526098538,-0.932222398,1.029798536,4.734457899,3.435573582,1.218277653
1.64617E+18,6.347856201,-5.106184491,-0.416611547,0.795071058,5.18447907,3.192911737,1.176343509
1.64617E+18,6.357837158,-5.030545605,-0.055804305,0.661904843,5.074211389,2.908098103,0.989647537
1.64617E+18,6.367819336,-4.338210991,0.057236383,0.551435393,4.373491922,2.640518748,0.68159831
1.64617E+18,6.377800293,-3.414871572,0.23075346,0.456950718,3.453027508,2.444177423,0.361962706
1.64617E+18,6.387781494,-2.56815479,0.49707157,0.430157513,2.650949765,2.341943131,0.137133169
1.64617E+18,6.397762207,-2.00600606,0.757357998,0.599065708,2.226326834,2.320039518,0.09791168
1.64617E+18,6.407744141,-1.725773991,0.864929315,0.906807459,2.132767769,2.331187474,0.092821224
1.64617E+18,6.417725098,-1.485755275,0.998723453,1.292153149,2.207844432,2.337024631,0.08127741
1.64617E+18,6.427706055,-1.174647591,1.199793722,1.598328199,2.318179236,2.347066157,0.070136831
1.64617E+18,6.437687256,-0.712038847,1.291609252,1.775068768,2.307839446,2.387717108,0.132072375
1.64617E+18,6.447669189,-0.197195474,1.425573486,1.840475891,2.336342724,2.479505292,0.280366006
1.64617E+18,6.457650146,0.272996272,1.510893223,1.842575055,2.398417839,2.62871259,0.48605417
1.64617E+18,6.467631348,0.563605358,1.59969262,1.712253415,2.410078678,2.834543342,0.723008893
1.64617E+18,6.477612305,0.693213151,1.784859802,1.497317118,2.430684582,3.098282765,0.961702698
1.64617E+18,6.487594238,0.811045749,1.919546505,1.253694532,2.431913644,3.404730334,1.16657422
1.64617E+18,6.497575195,0.922754897,1.917718705,0.967583122,2.337806393,3.734641285,1.303296118
1.64617E+18,6.507556152,1.067211298,1.782036561,0.697493604,2.191139336,4.059626272,1.319551897
1.64617E+18,6.517537354,1.279690266,1.877484894,0.406824386,2.308259688,4.354298829,1.192275474
1.64617E+18,6.527519043,1.752830341,2.084753434,0.072922759,2.724688755,4.591484051,0.978392444
1.64617E+18,6.5375,2.431419338,2.10892809,-0.214243128,3.225721284,4.749876441,0.769202692
1.64617E+18,6.547480713,3.217351104,2.005498695,-0.532347283,3.8284157,4.802076936,0.676072111
1.64617E+18,6.557461914,3.974470617,1.82834297,-0.850380054,4.456725361,4.729089463,0.804455211
1.64617E+18,6.567443604,4.676353981,1.584574546,-1.047768931,5.04747291,4.547354398,1.021466156
1.64617E+18,6.577424561,5.232765044,1.291534433,-1.070931926,5.49516027,4.276841952,1.196415226
1.64617E+18,6.587405762,5.535076258,1.156905598,-0.932269598,5.73102315,3.938757697,1.279190988
1.64617E+18,6.597386719,5.419895051,1.137039452,-0.744164974,5.58765627,3.551493399,1.26409314
1.64617E+18,6.607368896,4.960605807,1.210251988,-0.570382232,5.137864901,3.124831684,1.224249955
1.64617E+18,6.617349854,4.558394541,1.053585509,-0.120184423,4.680111912,2.684788495,1.212388928
1.64617E+18,6.627330811,4.225952393,0.793047736,0.27666707,4.308612654,2.268629444,1.169546201
1.64617E+18,6.637312012,3.656067516,0.783816382,0.253483909,3.747726229,1.890580798,1.054371634
1.64617E+18,6.647293701,2.931185554,1.002367947,-0.066075012,3.098540972,1.586637288,0.902330237
1.64617E+18,6.657274902,2.379645896,1.105005899,-0.287308583,2.639374708,1.374225819,0.760247447
1.64617E+18,6.667255859,2.113275764,0.920319778,-0.416741311,2.342348452,1.23067158,0.632622782
1.64617E+18,6.677236816,1.934318542,0.676461922,-0.520721106,2.114317721,1.135859808,0.519918191
1.64617E+18,6.687218994,1.726262652,0.45453182,-0.516715524,1.858380168,1.079960768,0.434795967
1.64617E+18,6.697199951,1.268785426,0.095140874,-0.355353507,1.32103912,1.061119185,0.403620209
1.64617E+18,6.707181152,0.669703096,-0.24963644,-0.181622861,0.737433015,1.123051163,0.479191103
1.64617E+18,6.717162842,0.304482713,-0.390306893,-0.154321889,0.518521397,1.290730054,0.594432471
1.64617E+18,6.727143799,0.094116208,-0.443742131,-0.2704669,0.5281262,1.548240589,0.743270686
1.64617E+18,6.737124756,-0.124980132,-0.546394111,-0.433023972,0.708291126,1.897637378,0.968661434
1.64617E+18,6.747105713,-0.292336933,-0.790412127,-0.489177236,0.974426283,2.317809408,1.236020118
1.64617E+18,6.757086914,-0.275702024,-1.05151747,-0.51721529,1.203832319,2.755549431,1.440898178
1.64617E+18,6.767068848,-0.143478497,-1.279455873,-0.535056944,1.394230735,3.156001848,1.508863502
1.64617E+18,6.777049805,-0.198602418,-1.422550338,-0.596616013,1.555327314,3.504377323,1.463366877
1.64617E+18,6.787030762,-0.485694436,-1.457167478,-0.65539663,1.669964337,3.825306244,1.348105312
1.64617E+18,6.797011719,-1.026212348,-1.50875738,-0.659948521,1.940358902,4.148755075,1.168192882
1.64617E+18,6.806993896,-1.672265104,-1.614368795,-0.65254146,2.414221933,4.435534045,0.915538666
1.64617E+18,6.816974854,-2.467270988,-1.766131136,-0.603225567,3.093626739,4.624432116,0.629054419
1.64617E+18,6.826955811,-3.426211297,-2.033676742,-0.549978107,4.022094089,4.688665398,0.485989079
1.64617E+18,6.836937012,-4.311061702,-2.293820547,-0.511220653,4.910011432,4.562735074,0.739455534
1.64617E+18,6.846918701,-4.790032967,-2.296870582,-0.64962813,5.351826511,4.248605339,1.103046798
1.64617E+18,6.856899902,-4.736978254,-1.882651483,-1.069409977,5.208356486,3.832557731,1.362566582
1.64617E+18,6.866880859,-4.474294116,-1.141778171,-1.572188673,4.877985491,3.393071345,1.544549318
1.64617E+18,6.876862793,-4.320289549,-0.297879954,-1.98694144,4.764616516,2.966657154,1.660035309
1.64617E+18,6.886843994,-4.396971807,0.294475698,-2.152574924,4.904452652,2.547511825,1.682156339
1.64617E+18,6.896824951,-4.399283007,0.389859149,-1.900687198,4.8081486,2.116140075,1.571925206
1.64617E+18,6.906805908,-4.049261362,0.30239597,-1.42463752,4.303202641,1.702758661,1.335385343
1.64617E+18,6.916787598,-3.525978662,0.537208934,-1.111879,3.735959565,1.360730013,1.028228429
1.64617E+18,6.926768555,-2.608012753,0.563019083,-0.717141723,2.762790846,1.105907335,0.656612798
1.64617E+18,6.936749756,-1.696913808,0.377217694,-0.326404439,1.768714086,0.98578521,0.403667627
1.64617E+18,6.946730713,-1.15746557,0.282093187,0.003566862,1.191350424,0.983887608,0.400010734
1.64617E+18,6.956712891,-0.705401016,0.367732658,0.17015392,0.813492629,1.038027476,0.457004085
1.64617E+18,6.966693848,-0.334209158,0.466768201,0.217337587,0.613843581,1.128690325,0.492053418
1.64617E+18,6.976674805,-0.057024202,0.53523325,0.196950997,0.573163229,1.253571514,0.503870044
1.64617E+18,6.986656006,0.16161095,0.54746554,0.152090111,0.590735151,1.41244261,0.514636598
1.64617E+18,6.996637695,0.409984238,0.424017439,0.326877792,0.674334454,1.63005315,0.57742146
1.64617E+18,7.006618896,0.440526091,0.355270651,0.677687592,0.882916159,1.902157606,0.692583877
1.64617E+18,7.016599854,0.04203823,0.71531743,0.947239642,1.187732789,2.203155491,0.825524639
1.64617E+18,7.026580811,-0.347511707,1.121831362,1.029188807,1.561569592,2.510143513,0.951956158
1.64617E+18,7.036562988,-0.483164625,1.306326928,1.05907753,1.74973807,2.80270776,1.059021928
1.64617E+18,7.046543945,-0.315301044,1.235005321,1.17378301,1.732749101,3.086714233,1.117749577
1.64617E+18,7.056525146,0.016661796,1.238851475,1.193225085,1.720121128,3.368203343,1.095552969
1.64617E+18,7.066506104,0.422163336,1.492113704,1.031920643,1.86265547,3.631859646,0.97816849
1.64617E+18,7.076487793,1.218109131,1.480820157,0.99853984,2.161874188,3.846021392,0.78218231
1.64617E+18,7.08646875,2.148036112,1.396979259,1.043933152,2.766840547,3.987923084,0.561308562
1.64617E+18,7.096449707,2.917168719,1.327016665,1.121495481,3.395379018,4.029111069,0.479319824
1.64617E+18,7.106430664,3.508646419,1.243471536,1.139214824,3.892895011,3.969849851,0.580056884
1.64617E+18,7.116412842,3.960577701,1.15558224,1.051533398,4.257613008,3.829769637,0.731182527
1.64617E+18,7.126393799,4.243866235,1.074188152,0.985287414,4.487212062,3.626953498,0.855155121
1.64617E+18,7.136374756,4.390945971,0.988831589,0.898941183,4.589802793,3.369513162,0.940659084
1.64617E+18,7.146355713,4.37466879,0.989051954,0.751718458,4.547640204,3.070127339,0.980230341
1.64617E+18,7.156337891,4.174419189,1.139666878,0.506044127,4.356684154,2.752176508,0.96495244
1.64617E+18,7.166318848,3.802476805,1.205146774,0.350703708,4.004272929,2.438953419,0.899429742
1.64617E+18,7.176299805,3.379599183,1.135055585,0.335766763,3.58089111,2.14903523,0.811059599
1.64617E+18,7.186281006,3.001224135,0.973311948,0.386756945,3.178720402,1.895291946,0.714591446
1.64617E+18,7.196262939,2.650893279,0.81968206,0.395459307,2.802766833,1.713328941,0.584433703
1.64617E+18,7.206243896,2.351651389,0.727089117,0.389363621,2.492092869,1.621605303,0.466291081
1.64617E+18,7.216224854,2.103007468,0.68282795,0.285587294,2.229451619,1.610524598,0.446364401
1.64617E+18,7.226205811,1.827404228,0.54986208,0.130700556,1.912808708,1.668508638,0.548886415
1.64617E+18,7.236187988,1.564104589,0.312776494,-0.05278956,1.59594456,1.797147162,0.716282015
1.64617E+18,7.246168945,1.340376498,0.10178455,-0.254589167,1.368131899,2.014876857,0.923092815
1.64617E+18,7.256149658,1.149545883,-0.075470544,-0.414890642,1.224453259,2.328423907,1.153835417
1.64617E+18,7.266130859,0.926132849,-0.226563023,-0.558724747,1.105091037,2.706798403,1.335819161
1.64617E+18,7.276112549,0.588440524,-0.497263293,-0.703755733,1.043458272,3.094060607,1.376081215
1.64617E+18,7.28609375,0.229876677,-0.989288101,-0.903101517,1.359090351,3.448418705,1.253168536
1.64617E+18,7.296074707,-0.19397885,-1.505161402,-1.118966693,1.885530456,3.726578033,1.050929371
1.64617E+18,7.306055664,-0.810500975,-1.831297728,-1.288393943,2.381285819,3.930005756,0.853145859
1.64617E+18,7.316037842,-1.614506158,-1.913316086,-1.274642335,2.809292021,4.093988782,0.679664762
1.64617E+18,7.326018799,-2.41704536,-1.811859453,-1.053517412,3.199193943,4.258971666,0.531989101
1.64617E+18,7.336,-3.268723564,-1.714773289,-0.782528168,3.773241512,4.448886297,0.452864125
1.64617E+18,7.345980957,-4.089007682,-1.813105653,-0.524498433,4.503602396,4.615908244,0.480060287
1.64617E+18,7.355962891,-4.445923177,-2.263387999,-0.439193966,5.008198226,4.685288016,0.508130244
1.64617E+18,7.365943848,-4.135096064,-2.733136678,-0.45669667,4.97771307,4.642641045,0.497014021
1.64617E+18,7.375924805,-3.532476792,-2.862394634,-0.60764616,4.587039261,4.518402352,0.550165786
1.64617E+18,7.385906006,-2.984261895,-2.782441684,-0.705308516,4.140683625,4.348585548,0.734105384
1.64617E+18,7.395887939,-2.875738976,-2.553181677,-0.75913173,3.919807689,4.154327158,0.979444228
1.64617E+18,7.405868896,-3.316343393,-2.145205272,-0.75454316,4.021116082,3.942075556,1.210091711
1.64617E+18,7.415850098,-4.131086828,-1.593240083,-0.528645908,4.459120859,3.709982897,1.382908355
1.64617E+18,7.425830811,-4.984897368,-1.039449723,-0.251824963,5.09834025,3.432619805,1.47960861
1.64617E+18,7.435812744,-5.421389089,-0.489513117,0.013592691,5.443460986,3.099247447,1.441827137
1.64617E+18,7.445793701,-5.182137265,-0.182870596,0.353524538,5.197400109,2.7441173,1.244556342
1.64617E+18,7.455774658,-4.537587316,-0.037279345,0.633362347,4.581728523,2.42793898,0.947253601
1.64617E+18,7.465755859,-3.628854515,0.240199918,0.852279458,3.735326139,2.184366095,0.618085489
1.64617E+18,7.475737793,-2.63573195,0.600963321,1.018497463,2.888871217,2.034447016,0.345361031
1.64617E+18,7.485718994,-1.748544042,0.779669783,1.079977403,2.198099731,1.98740465,0.242492944
1.64617E+18,7.495699707,-1.024102809,0.910606194,1.162870205,1.797291662,2.031853551,0.308730466
1.64617E+18,7.505680664,-0.45550388,1.029599068,1.274004037,1.700189493,2.128627407,0.366336178
1.64617E+18,7.515662842,0.003183306,1.102920325,1.274532445,1.685489938,2.268174756,0.435762102
1.64617E+18,7.525644287,0.367784096,1.219430151,1.221309535,1.764616676,2.436446058,0.498625535
1.64617E+18,7.535625488,0.711922527,1.250958677,1.228224867,1.892159512,2.626187925,0.563646063
1.64617E+18,7.545606445,0.935977366,1.353363989,1.198369096,2.035616911,2.841179423,0.646582746
1.64617E+18,7.555588379,0.934843394,1.536595235,1.170579976,2.145999666,3.079917521,0.739185524
1.64617E+18,7.565569336,0.814472801,1.749996578,1.128914233,2.236135352,3.338460749,0.815524599
1.64617E+18,7.575550293,0.687580698,2.078026171,1.028556574,2.418447562,3.603512127,0.844396078
1.64617E+18,7.585531494,0.711911421,2.38557061,0.886290156,2.64258874,3.856162016,0.829867203
1.64617E+18,7.595512207,1.064354155,2.46650468,0.654902271,2.765030215,4.079891263,0.772106785
1.64617E+18,7.605494385,1.627133,2.600450793,0.416200921,3.095662988,4.280945486,0.656686652
1.64617E+18,7.615475342,2.255188326,2.498146019,0.134845327,3.36820296,4.448832114,0.535653316
1.64617E+18,7.625456299,2.878696072,2.263148345,-0.042087056,3.66203534,4.586428702,0.399922611
1.64617E+18,7.635438232,3.42159182,2.148079366,-0.129733172,4.042074498,4.677572078,0.257288682
1.64617E+18,7.645419189,3.879946998,2.10390354,-0.287248231,4.422997893,4.699745469,0.206010016
1.64617E+18,7.655400146,4.210391835,2.102484905,-0.48847318,4.731431943,4.638956672,0.33067194
1.64617E+18,7.665381348,4.414275409,1.990285344,-0.657477455,4.886649132,4.487066476,0.537482504
1.64617E+18,7.675363281,4.529069078,1.83602008,-0.754359985,4.944946454,4.239817985,0.800925323
1.64617E+18,7.685344482,4.487535875,1.708633471,-0.869387171,4.87988121,3.896188997,1.10435689
1.64617E+18,7.695325439,4.371591867,1.581485347,-1.092785812,4.775572446,3.473600663,1.412599921
1.64617E+18,7.705306396,4.356376762,1.468500189,-1.289037794,4.774529268,3.036053552,1.605963205
1.64617E+18,7.715287354,4.377857941,1.23644909,-1.346362294,4.744168835,2.643450988,1.612851118
1.64617E+18,7.725269287,4.28565955,0.934489174,-1.294786421,4.573469107,2.296194761,1.49251332
1.64617E+18,7.735250488,4.051199637,0.664499682,-1.151643951,4.263808405,2.00470013,1.290229281
1.64617E+18,7.745231445,3.621373803,0.603350509,-1.037633687,3.815109924,1.786183202,1.052203225
1.64617E+18,7.755212402,3.013636458,0.592050532,-0.942242199,3.212529983,1.652550289,0.851814915
1.64617E+18,7.76519458,2.263636421,0.363822791,-0.756156075,2.41416422,1.61528079,0.788549596
1.64617E+18,7.775175049,1.404489197,0.061052727,-0.547473577,1.508656573,1.691430983,0.89200358
1.64617E+18,7.78515625,0.530730678,-0.195021637,-0.32864071,0.653997866,1.881395452,1.025186615
1.64617E+18,7.795137207,-0.144476275,-0.368567355,-0.058015478,0.400101343,2.186294174,1.067339104
1.64617E+18,7.805119141,-0.556115295,-0.604291005,0.21336956,0.848503629,2.576337675,1.05595092
1.64617E+18,7.815100342,-0.873362797,-0.820111099,0.426190619,1.271606556,2.998757188,1.123047158
1.64617E+18,7.825081299,-1.147154019,-1.041926635,0.590867532,1.658522806,3.436263558,1.213533075
1.64617E+18,7.835062256,-1.267127137,-1.476989785,0.73050024,2.078639124,3.847559667,1.238057843
1.64617E+18,7.845044189,-1.290669925,-1.959419081,0.799501223,2.478780788,4.189146539,1.172365757
1.64617E+18,7.855025146,-1.30763918,-2.390020575,0.80158855,2.839834991,4.458295458,1.051534854
1.64617E+18,7.865006348,-1.488770239,-2.688929872,0.798795851,3.175666149,4.684976365,0.9134744
1.64617E+18,7.874987305,-1.81018129,-2.78593011,0.760496296,3.408301263,4.916927085,0.786431513
1.64617E+18,7.884969482,-2.361710426,-2.782908717,0.624372912,3.702985093,5.173314737,0.660681552
1.64617E+18,7.894950439,-3.116761901,-2.923382186,0.483988362,4.300536349,5.397164009,0.478761048
1.64617E+18,7.904931396,-3.827035492,-3.300433292,0.439559073,5.072698764,5.474019218,0.337356715
1.64617E+18,7.914912598,-4.265125881,-3.669310444,0.479319348,5.646670253,5.315255208,0.684174057
1.64617E+18,7.924894287,-4.416934983,-3.690734924,0.423305419,5.7714839,4.971641344,1.141477516
1.64617E+18,7.934875488,-4.390706902,-3.300480638,0.13467304,5.494507837,4.559626532,1.473663059
1.64617E+18,7.944856201,-4.440715672,-2.639606746,-0.210267137,5.170269985,4.1822505,1.657646898
1.64617E+18,7.954837158,-4.736405422,-1.869157795,-0.387977281,5.10664406,3.886065751,1.71815287
1.64617E+18,7.964819336,-5.394952917,-0.822797562,-0.643752516,5.495173347,3.646979978,1.697899151
1.64617E+18,7.974800293,-5.900055233,0.088338793,-0.921114509,5.97217778,3.400595076,1.586971116
1.64617E+18,7.98478125,-5.773004725,0.721823743,-1.205215967,5.941477812,3.110045168,1.335628814
1.64617E+18,7.994762451,-4.774220481,0.988890041,-1.387289786,5.069088445,2.810783999,0.946173276
1.64617E+18,8.004744141,-3.138746939,0.879022722,-1.23337772,3.485058664,2.565755982,0.573495169
1.64617E+18,8.014725342,-1.642121895,0.96913554,-1.118330003,2.210531612,2.434461257,0.492587319
1.64617E+18,8.024706299,-0.32765959,1.149506135,-1.139379074,1.651335774,2.398930076,0.519535774
1.64617E+18,8.034687256,0.798294404,0.972469652,-1.173882817,1.720747526,2.41168276,0.502308103
1.64617E+18,8.044669434,1.578112656,0.864451176,-1.280396222,2.208422486,2.423793633,0.486721514
1.64617E+18,8.054650391,2.079695566,0.94105277,-1.47131963,2.715786335,2.398639292,0.50341587
1.64617E+18,8.064631348,2.298226673,1.081801549,-1.654323643,3.031324322,2.331560059,0.501374301
1.64617E+18,8.074612305,2.163546984,1.342909815,-1.708852229,3.066678703,2.252182317,0.443838043
1.64617E+18,8.084594482,1.848296209,1.637839687,-1.611550085,2.94886612,2.208690453,0.378375682
1.64617E+18,8.094575439,1.380633105,1.813850334,-1.289168727,2.618808281,2.219711593,0.400719984
1.64617E+18,8.104556396,0.902255129,1.832308951,-0.739356185,2.17211141,2.301065892,0.533928521
1.64617E+18,8.114537354,0.561579406,1.754911823,-0.216225753,1.855219801,2.448448655,0.665254416
1.64617E+18,8.124519531,0.290226224,1.750257275,0.129307494,1.778862619,2.646707338,0.749063713
1.64617E+18,8.1345,0.18492519,1.799399199,0.346986515,1.84185625,2.871716163,0.79133542
1.64617E+18,8.144481201,0.429160648,1.867947251,0.394930315,1.956879083,3.109764481,0.803680236
1.64617E+18,8.154462158,0.808605955,1.84701143,0.341622065,2.044993997,3.349262317,0.780965893
1.64617E+18,8.164443359,1.310707336,1.786055734,0.314113588,2.237546904,3.577793278,0.695567352
1.64617E+18,8.174425293,1.905430301,1.80765674,0.166953626,2.631760064,3.765664206,0.545789935
1.64617E+18,8.18440625,2.423957916,1.864905399,0.067165218,3.059077523,3.884210678,0.394367057
1.64617E+18,8.194387451,2.855608627,1.904211573,-0.022647164,3.43235127,3.926817633,0.318670248
1.64617E+18,8.204368408,3.161978177,1.810537849,-0.129298726,3.645939036,3.896796831,0.373296823
1.64617E+18,8.214350342,3.419298156,1.732068123,-0.192613407,3.837806638,3.809098152,0.502563266
1.64617E+18,8.224331299,3.638208618,1.720309296,-0.190837794,4.028950867,3.66145035,0.663544428
1.64617E+18,8.234312256,3.882537015,1.646498795,-0.207601279,4.222339428,3.4590255,0.812582988
1.64617E+18,8.244293457,4.051328816,1.566061568,-0.269905905,4.351857444,3.200965131,0.930422137
1.64617E+18,8.254275391,4.058624818,1.477106689,-0.311848858,4.330303603,2.90050366,0.99326815
1.64617E+18,8.264256592,3.876667246,1.341188398,-0.340924876,4.116256191,2.586965848,0.987290515
1.64617E+18,8.274237549,3.610714462,1.197516425,-0.316070421,3.817224781,2.298066763,0.917761152
1.64617E+18,8.284218262,3.300895064,1.082068676,-0.281902961,3.485147074,2.062031715,0.791548707
1.64617E+18,8.294200439,2.965805032,0.966197148,-0.284226838,3.132143245,1.886521737,0.635799683
1.64617E+18,8.304181152,2.636567232,0.809553465,-0.245424083,2.76895225,1.767562824,0.485022352
1.64617E+18,8.314162354,2.27833247,0.589479804,-0.193875097,2.361328617,1.694009489,0.36963016
1.64617E+18,8.324143311,1.954168321,0.400181806,-0.199780595,2.004702369,1.687772754,0.358681952
1.64617E+18,8.334125244,1.628537606,0.060340779,-0.198797575,1.641735734,1.795851167,0.549806995
1.64617E+18,8.344106445,1.30758482,-0.232004921,-0.226844981,1.347242736,2.042295259,0.87916908
1.64617E+18,8.354087402,1.028444053,-0.534747513,-0.290163461,1.194925482,2.398896761,1.192353305
1.64617E+18,8.364068359,0.863235371,-0.819316734,-0.299541311,1.227265339,2.830847708,1.435558401
1.64617E+18,8.374050293,0.915151436,-1.094987194,-0.293229644,1.456874301,3.282277551,1.564326749
1.64617E+18,8.38403125,0.992867128,-1.378716457,-0.32621995,1.7300473,3.706650613,1.587024482
1.64617E+18,8.394012451,0.870607945,-1.710429123,-0.29998416,1.942554111,4.094279342,1.529239854
1.64617E+18,8.403993408,0.354894803,-1.974540662,-0.331709597,2.033418896,4.483777435,1.423997072
1.64617E+18,8.413975586,-0.660081865,-2.18144446,-0.301355156,2.298961272,4.902786302,1.246771682
1.64617E+18,8.423956299,-2.063653362,-2.28504512,-0.200326027,3.085486496,5.279639228,0.932783262
1.64617E+18,8.433937256,-3.337967781,-2.387589549,-0.13443945,4.106176655,5.475718765,0.596365974
1.64617E+18,8.443918457,-4.280760672,-2.411446225,-0.010814166,4.913257756,5.425289583,0.718797656
1.64617E+18,8.45389917,-4.912624743,-2.498717681,0.177541437,5.514434956,5.147656136,1.222582256
1.64617E+18,8.463881592,-5.232572152,-2.35162567,0.235796276,5.741563768,4.712927421,1.696086761
1.64617E+18,8.473862305,-5.331479101,-1.998150086,0.282175969,5.700604919,4.221570814,2.009661069
1.64617E+18,8.483843262,-5.408375294,-1.453923674,0.258012054,5.606334595,3.747474419,2.158526039
1.64617E+18,8.493824463,-5.772948026,-0.844032073,0.193639608,5.83753504,3.314170088,2.176718659
1.64617E+18,8.503806152,-6.211384451,-0.372029478,0.111101975,6.223507563,2.894780433,2.050499196
1.64617E+18,8.513787109,-6.062281685,-0.250884686,0.015460385,6.067490534,2.468645928,1.732596758
1.64617E+18,8.523768311,-5.024166133,-0.470366226,0.038352308,5.046281861,2.080418775,1.250614263
1.64617E+18,8.533748779,-3.582345861,-0.369006915,0.064857088,3.601884842,1.815718348,0.790254661
1.64617E+18,8.543730957,-2.126075624,-0.170117789,0.131542779,2.136923285,1.725661768,0.613010624
1.64617E+18,8.553711914,-1.122457385,-0.130835873,0.291899637,1.167147807,1.809355885,0.712505938
1.64617E+18,8.563692871,-0.665489277,-0.015910101,0.492393203,0.827997691,1.998037412,0.765327105
1.64617E+18,8.573674072,-0.590613192,0.137699329,0.743724244,0.959640974,2.209409435,0.702283021
1.64617E+18,8.583655762,-0.713738052,0.308366861,1.008344464,1.273291281,2.388400918,0.578054651
1.64617E+18,8.593636963,-0.845212223,0.480412111,1.325280343,1.64363849,2.518012766,0.443032074
1.64617E+18,8.603617676,-0.7900468,0.642810413,1.677111375,1.962162515,2.608626137,0.334237138
1.64617E+18,8.613598633,-0.52978726,0.791066207,1.96690666,2.185219004,2.686505369,0.256142259
1.64617E+18,8.623580811,-0.176422735,0.916473624,2.210313119,2.399277594,2.770202212,0.211525738
1.64617E+18,8.633561768,0.227994517,1.066070896,2.47156547,2.701319035,2.870627284,0.247001276
1.64617E+18,8.643542969,0.555903698,1.236525078,2.646855986,2.973864456,2.992989389,0.392846238
1.64617E+18,8.653523926,0.779371677,1.451748376,2.571322022,3.053963081,3.158772271,0.628762808
1.64617E+18,8.663505859,0.924654593,1.724984302,2.196166521,2.941717924,3.370165634,0.867879668
1.64617E+18,8.673486816,0.998619993,1.960308139,1.64924444,2.749555803,3.619611853,1.048559269
1.64617E+18,8.683467773,1.145782146,1.97482474,1.178608092,2.56940976,3.89326826,1.138979446
1.64617E+18,8.693448975,1.370211079,1.960811412,0.882654211,2.549772196,4.179038448,1.129432156
1.64617E+18,8.703430908,1.644848105,2.070655935,0.720896765,2.74095484,4.459578411,1.034307713
1.64617E+18,8.713411865,2.02479084,2.146154536,0.654109805,3.022187432,4.699953974,0.873834041
1.64617E+18,8.723393066,2.59391993,2.129378173,0.566862387,3.403528313,4.872677175,0.672686593
1.64617E+18,8.733374023,3.340156231,2.030009452,0.357173197,3.92494009,4.961083531,0.512917355
1.64617E+18,8.743355957,4.253215078,1.828241848,0.142393186,4.631693273,4.940948093,0.555391339
1.64617E+18,8.753336914,4.855450319,1.768344136,0.068684683,5.167896707,4.775889795,0.809782602
1.64617E+18,8.763317871,5.128657019,1.802265695,-0.027745062,5.436180115,4.471111066,1.119288966
1.64617E+18,8.773298828,5.288139725,1.452683026,-0.151001878,5.486119876,4.046718571,1.433405936
1.64617E+18,8.783279785,5.323824787,1.029573934,-0.224516904,5.427111634,3.531729465,1.720181561
1.64617E+18,8.793261963,5.290236405,0.805294054,-0.206798365,5.355171827,3.063913868,1.776318895
1.64617E+18,8.803242676,5.081064078,0.789565154,-0.165591544,5.144710474,2.672578352,1.655384838
1.64617E+18,8.813223633,4.639619119,0.974427216,-0.28532625,4.749419442,2.353746712,1.441802211
1.64617E+18,8.823204834,4.097235996,1.177276186,-0.458390688,4.287591871,2.099680359,1.201008474
1.64617E+18,8.833186768,3.513647004,1.116195986,-0.522954857,3.723585708,1.903647559,0.964611965
1.64617E+18,8.843167969,2.844716061,0.815064337,-0.360942194,2.981110298,1.774676107,0.781497812
1.64617E+18,8.853148926,2.076483618,0.412005515,-0.115460682,2.120109414,1.725561781,0.716897747
1.64617E+18,8.863129883,1.190055003,0.071989716,-0.00767711,1.192255161,1.777173664,0.760685973
1.64617E+18,8.873111816,0.246188345,-0.228287947,0.018048063,0.336228821,1.957157986,0.812182267
1.64617E+18,8.883092773,-0.579706598,-0.472579518,0.039286739,0.748955666,2.274615973,0.733145535
1.64617E+18,8.893073975,-1.221065059,-0.76061437,0.096442678,1.441816662,2.603013928,0.711380264
1.64617E+18,8.903054932,-1.605970969,-1.102355092,0.182066732,1.956394081,2.903439032,0.787815618
1.64617E+18,8.913036865,-1.755532585,-1.332944302,0.141306413,2.20875591,3.164621361,0.860172376
1.64617E+18,8.923018066,-1.750334432,-1.533780762,0.001743921,2.327263864,3.38588851,0.870359484
1.64617E+18,8.932999023,-1.698575019,-1.735309881,-0.165140878,2.433871194,3.582616593,0.830253386
1.64617E+18,8.942979736,-1.726605181,-1.771708059,-0.282526025,2.489967039,3.774821236,0.761719049
1.64617E+18,8.952960938,-1.968485016,-1.716440346,-0.358606517,2.636228243,4.00533846,0.682713394
1.64617E+18,8.962942627,-2.427007951,-1.710782174,-0.368116104,2.992098379,4.270662242,0.610862474
1.64617E+18,8.972923828,-2.909882653,-1.944274119,-0.279568856,3.510808689,4.494345122,0.501471379
1.64617E+18,8.982904785,-3.192418907,-2.450062079,-0.264997821,4.032935224,4.600262778,0.379595502
1.64617E+18,8.992885742,-3.292009163,-2.96750599,-0.352280895,4.446067696,4.566294324,0.439340333
1.64617E+18,9.00286792,-3.289191767,-3.092944972,-0.695355204,4.56821737,4.403629531,0.685763604
1.64617E+18,9.012848877,-3.230660083,-2.822418305,-1.070425438,4.421427403,4.159093613,0.963305135
1.64617E+18,9.022830078,-3.31418943,-2.430858781,-1.245065527,4.294544698,3.876113104,1.224821539
1.64617E+18,9.032811035,-3.702445236,-1.954783238,-1.201973405,4.355917618,3.562559025,1.456925317
1.64617E+18,9.042792969,-4.484366597,-1.352265088,-1.027227371,4.795139281,3.218343935,1.6256739
1.64617E+18,9.052773926,-5.174972196,-0.728358698,-0.817072608,5.289466067,2.834926608,1.660347536
1.64617E+18,9.062754883,-5.182276381,-0.370484002,-0.590281695,5.228927172,2.423395459,1.503574418
1.64617E+18,9.072736084,-4.552617711,-0.126673492,-0.377347385,4.569985257,2.043299482,1.195094122
1.64617E+18,9.082718018,-3.648089961,0.262471956,-0.512492645,3.693250682,1.750336695,0.848672433
1.64617E+18,9.092698975,-2.670435015,0.495637153,-0.756471059,2.819419766,1.557414153,0.552768535
1.64617E+18,9.102679688,-1.865768153,0.505001778,-0.877729614,2.122858185,1.468375595,0.390089113
1.64617E+18,9.112660645,-1.266089611,0.46286944,-0.84618589,1.591622311,1.469924194,0.392706205
1.64617E+18,9.122642822,-0.780969175,0.436726114,-0.736646123,1.159003909,1.554383709,0.488851693
1.64617E+18,9.132623779,-0.430524922,0.467872948,-0.656287149,0.913766724,1.718978628,0.593838657
1.64617E+18,9.142604736,-0.177974056,0.689888975,-0.644852001,0.960966006,1.9481774,0.675518976
1.64617E+18,9.152585938,0.072824998,0.972021909,-0.654605918,1.174154581,2.204295901,0.735533724
1.64617E+18,9.162567871,0.235749953,1.245572892,-0.657313497,1.427967403,2.477434046,0.806044724
1.64617E+18,9.172548828,0.263386733,1.508762641,-0.587396861,1.640357385,2.772317298,0.901871951
1.64617E+18,9.182529785,0.275307472,1.695151474,-0.403053854,1.764025264,3.090748034,1.002524094
1.64617E+18,9.192510742,0.371527958,1.879745825,-0.222924812,1.929034178,3.431186434,1.069955394
1.64617E+18,9.202491943,0.645073681,2.038211463,-0.04571458,2.138344183,3.781111615,1.093412747
1.64617E+18,9.212473877,1.039669796,2.202477311,0.057757412,2.43621746,4.129814887,1.069682394
1.64617E+18,9.222455078,1.438590788,2.403872575,0.140053783,2.804953097,4.465379622,1.01046054
1.64617E+18,9.232436035,1.845439066,2.61848797,0.12139599,3.205754448,4.775918365,0.92611326
1.64617E+18,9.242416992,2.372124268,2.596110718,0.19693485,3.522151011,5.038966797,0.808936187
1.64617E+18,9.252398926,2.981924976,2.502453361,0.314741657,3.905536032,5.247489809,0.642753749
1.64617E+18,9.262379883,3.589408639,2.465330375,0.441213489,4.376799925,5.379812456,0.464299662
1.64617E+18,9.272360596,4.093381075,2.511000824,0.465291407,4.82466474,5.421954235,0.383431972
1.64617E+18,9.282341797,4.517071766,2.461719784,0.498450311,5.168409267,5.361752257,0.501552188
1.64617E+18,9.29232373,4.856926237,2.355334462,0.573546761,5.428285989,5.197525613,0.746854909
1.64617E+18,9.302304932,5.14699464,2.167395477,0.6750617,5.625376901,4.926704671,1.045417913
1.64617E+18,9.312285889,5.393893179,2.02076816,0.606721008,5.791864809,4.551600052,1.354651074
1.64617E+18,9.322266846,5.586348765,1.851329878,0.54535337,5.910340526,4.082109219,1.629198712
1.64617E+18,9.332247803,5.583565272,1.641577705,0.436697181,5.836238766,3.58734233,1.745949678
1.64617E+18,9.342229736,5.421899961,1.389900115,0.337493294,5.607381139,3.175962372,1.649587726
1.64617E+18,9.352210938,5.086162863,1.194793138,0.208264126,5.228762497,2.867242985,1.441407777
1.64617E+18,9.362191895,4.686160505,1.02874099,0.066969554,4.798217713,2.663789629,1.220359641
1.64617E+18,9.372172852,4.131749676,0.864302123,-0.111161889,4.222644966,2.562269359,1.071755341
1.64617E+18,9.382155029,3.469552426,0.594604892,-0.205752728,3.526142822,2.571635238,1.086531519
1.64617E+18,9.392135986,2.706627441,0.226337982,-0.147497669,2.720076571,2.692078141,1.241384914
1.64617E+18,9.402116943,1.862524056,-0.202991593,-0.053982862,1.874330706,2.927909489,1.433453921
1.64617E+18,9.4120979,0.92837449,-0.574841623,0.104840056,1.096956482,3.28839045,1.56994225
1.64617E+18,9.422079834,-0.103815179,-0.904022724,0.314168752,0.962671637,3.779116918,1.575195722
1.64617E+18,9.432061035,-1.084890747,-1.256805065,0.458530096,1.722439187,4.325209496,1.44537738
1.64617E+18,9.442041748,-1.899158381,-1.566889836,0.53795683,2.520187268,4.794779351,1.276406461
1.64617E+18,9.452022949,-2.531910341,-1.895979167,0.444737571,3.194228934,5.143368228,1.066323731
1.64617E+18,9.462004639,-3.000628508,-2.28289028,0.309585443,3.783015017,5.378520411,0.847364457
1.64617E+18,9.471985596,-3.412906994,-2.634834709,0.200474495,4.316303756,5.523671108,0.666684038
1.64617E+18,9.481966797,-3.74384283,-2.890397324,0.086914752,4.730571847,5.602239597,0.557048128
1.64617E+18,9.491947754,-4.053454722,-3.059311875,-0.0126983,5.078390058,5.641879354,0.50531081
1.64617E+18,9.501928711,-4.537570949,-3.071060473,0.004005655,5.479140315,5.645953245,0.500896392
1.64617E+18,9.511910889,-5.083950447,-3.194124835,0.041062233,6.004221158,5.566689899,0.577828348
1.64617E+18,9.521891846,-5.387952099,-3.491734447,0.200914421,6.423597424,5.33165694,0.790810656
1.64617E+18,9.531872803,-5.276228923,-3.636677463,0.358437298,6.418137729,4.929531286,1.096600338
1.64617E+18,9.541854004,-4.875885204,-3.493147821,0.310823314,6.006076037,4.42622056,1.408532678
1.64617E+18,9.551835693,-4.506673706,-3.222413356,0.247580019,5.54575077,3.936406236,1.611072708
1.64617E+18,9.56181665,-4.581095618,-2.528794547,0.137773417,5.234521987,3.516603708,1.682393808
1.64617E+18,9.571797852,-4.797129648,-1.737110501,-0.016805077,5.101988648,3.154500392,1.66324695
1.64617E+18,9.581778809,-4.992251822,-1.167533959,-0.010076354,5.12696941,2.826862413,1.567280445
1.64617E+18,9.591760986,-5.081211962,-0.616062691,0.085048081,5.119128971,2.513935506,1.377732376
1.64617E+18,9.601741943,-4.685979888,0.02369301,0.06616364,4.686506854,2.217965273,1.06977216
1.64617E+18,9.611722656,-3.635294777,0.368163743,0.003307444,3.653891568,1.987892822,0.696366028
1.64617E+18,9.621703857,-2.354056112,0.475388438,0.060559098,2.40234089,1.889344493,0.493931997
1.64617E+18,9.631685547,-1.201224632,0.681477997,0.104673404,1.385030468,1.936939567,0.559632594
1.64617E+18,9.641666748,-0.430405679,1.017349243,0.085244042,1.107932795,2.097661205,0.606847738
1.64617E+18,9.651647705,-0.118009709,1.337262165,0.119027791,1.347725493,2.281261559,0.555172958
1.64617E+18,9.661628662,-0.035417935,1.59598792,0.23433804,1.613488825,2.430517253,0.479626132
1.64617E+18,9.671609863,0.068632222,1.783326017,0.384558997,1.825608853,2.547257732,0.402412352
1.64617E+18,9.681591797,0.30856326,1.887028968,0.578547345,1.997700338,2.663555073,0.340308175
1.64617E+18,9.691572754,0.666423928,1.90801798,0.760572138,2.159426646,2.795461594,0.311034505
1.64617E+18,9.701553711,1.090240292,1.886246877,0.972320015,2.385782343,2.940764832,0.319255174
1.64617E+18,9.711534668,1.41848908,1.93675366,1.165022196,2.668408276,3.100682148,0.393170673
1.64617E+18,9.721516846,1.599360027,1.988652774,1.33111621,2.878291631,3.269081062,0.514021425
1.64617E+18,9.731497803,1.574571038,2.084771554,1.45876483,2.992246851,3.445885433,0.638255072
1.64617E+18,9.74147876,1.339452953,2.25678524,1.333996733,2.94393633,3.634994492,0.746763237
1.64617E+18,9.751459961,1.176122339,2.394036825,0.975975542,2.840282439,3.841669961,0.810208946
1.64617E+18,9.76144165,1.414077694,2.32211959,0.584392126,2.78089361,4.057953121,0.802669091
1.64617E+18,9.771422607,1.922190297,2.268293892,0.302739596,2.988582269,4.272480647,0.714525976
1.64617E+18,9.781403564,2.367587209,2.321114212,0.088844332,3.316765547,4.445429004,0.57935425
1.64617E+18,9.791384521,2.780955245,2.303433594,-0.101694534,3.61245902,4.544948442,0.447370661
1.64617E+18,9.801366699,3.398263552,2.068324861,-0.231748773,3.984955507,4.559231377,0.418735186
1.64617E+18,9.811347656,3.884219269,1.926138158,-0.382355496,4.352397415,4.479670572,0.568935983
1.64617E+18,9.821328857,4.226376171,1.859026862,-0.519803553,4.646335346,4.300180098,0.811990311
1.64617E+18,9.831309814,4.517802419,1.756163284,-0.593579276,4.883337438,4.022502838,1.077511637
1.64617E+18,9.841290771,4.714391159,1.604603188,-0.553885417,5.010691015,3.663321695,1.305273941
1.64617E+18,9.851272705,4.760332241,1.462142344,-0.482210393,5.003114045,3.249171944,1.459929748
1.64617E+18,9.861253662,4.732067101,1.310837684,-0.3954558,4.926168873,2.80945861,1.526126389
1.64617E+18,9.871234863,4.567160616,1.146049273,-0.296243457,4.718065834,2.395895221,1.455192808
1.64617E+18,9.88121582,4.20092375,0.954425462,-0.185229799,4.311959925,2.02867191,1.275049954
1.64617E+18,9.891197754,3.676929686,0.754787855,-0.112579574,3.755288376,1.718854815,1.036739484
1.64617E+18,9.901178955,3.121542121,0.650941112,-0.064712053,3.189347456,1.490383742,0.783637491
1.64617E+18,9.911159912,2.501876437,0.529388616,0.033626594,2.557492671,1.345957508,0.557734963
1.64617E+18,9.921141113,1.839948652,0.313535788,0.10746698,1.869562752,1.28875341,0.449343428
1.64617E+18,9.931122803,1.285738314,0.043566755,0.114097942,1.291526002,1.326365011,0.508263266
1.64617E+18,9.941103516,0.834600228,-0.220170691,0.10229703,0.869193509,1.445339993,0.614359036
1.64617E+18,9.951084717,0.373643928,-0.474650479,0.048059901,0.605980706,1.641625485,0.705698647
1.64617E+18,9.961065674,-0.034736967,-0.788956083,0.035877515,0.790534979,1.931313161,0.808241343
1.64617E+18,9.971046631,-0.319106866,-0.995459775,0.031571123,1.045832726,2.277543524,0.970664286
1.64617E+18,9.981028809,-0.492908605,-1.109199844,-0.000691782,1.21378897,2.655051403,1.137909437
1.64617E+18,9.991009766,-0.585806084,-1.348738668,-0.01827157,1.470577646,3.031344825,1.218414295
1.64617E+18,10.00099072,-0.71474986,-1.591913802,0.0162833,1.745085116,3.352428918,1.187481925
1.64617E+18,10.01097168,-0.971836615,-1.731204784,0.021954861,1.985451694,3.637849436,1.107140176
1.64617E+18,10.02095386,-1.226768823,-1.880458357,-0.044583823,2.24567876,3.987476257,1.081880056
1.64617E+18,10.03093481,-1.550882704,-1.926021254,-0.204779645,2.481275828,4.472858853,1.26489306
1.64617E+18,10.04091577,-2.001746065,-1.964419374,-0.393150738,2.832048426,5.054909468,1.526629119
1.64617E+18,10.05089697,-2.543110365,-2.341009291,-0.567693212,3.502857464,5.569412839,1.557459771
1.64617E+18,10.06087866,-3.01590148,-2.900257916,-0.76123484,4.252838605,5.888533394,1.42241404
1.64617E+18,10.07085986,-3.259354263,-3.394534594,-1.046390263,4.820911522,5.994619995,1.333229313
1.64617E+18,10.08084082,-3.255218186,-3.545233397,-1.265957509,4.976723188,5.904244685,1.436369801
1.64617E+18,10.09082153,-3.284267755,-3.066602617,-1.313473878,4.68141858,5.677148685,1.717144255
1.64617E+18,10.10080273,-3.849707343,-2.199232338,-1.22335675,4.599290297,5.393516211,2.058507614
1.64617E+18,10.11078467,-5.287410242,-1.16892746,-0.852147064,5.481719903,5.074003902,2.379869019
1.64617E+18,10.12076563,-7.078342057,-0.001122867,-0.547758824,7.09950472,4.65815327,2.623178295
1.64617E+18,10.13074683,-8.244591238,0.744175276,-0.626500133,8.301781973,4.08661422,2.651475243
1.64617E+18,10.14072778,-7.919616356,0.721494658,-0.626866555,7.977082139,3.403614313,2.338974659
1.64617E+18,10.15070972,-6.639031772,0.631886283,-0.578322158,6.694063016,2.76587518,1.815996822
1.64617E+18,10.16069067,-5.186025505,0.931082872,-0.688244788,5.313704615,2.268927053,1.271318313
1.64617E+18,10.17067163,-3.642960197,1.140073705,-0.87931966,3.917158423,1.924886013,0.765814278
1.64617E+18,10.18065283,-2.254421434,1.176910275,-0.923915903,2.705763181,1.729958454,0.389544211
1.64617E+18,10.19063379,-1.178213174,1.167113688,-0.808721617,1.845093846,1.667919848,0.255555591
1.64617E+18,10.20061597,-0.426041054,1.146986846,-0.688909097,1.404167208,1.7216547,0.332169242
1.64617E+18,10.21059692,0.032848377,1.155296994,-0.644285673,1.323213583,1.867474674,0.457291541
1.64617E+18,10.22057788,0.307499431,1.169212706,-0.673912384,1.384114213,2.068732328,0.595469498
1.64617E+18,10.23055884,0.51309273,1.207698796,-0.666591613,1.471782902,2.316682542,0.753919945
1.64617E+18,10.24054077,0.729816496,1.278936817,-0.62505936,1.599690815,2.60149069,0.903973348
1.64617E+18,10.25052197,0.914408509,1.361977504,-0.532030582,1.724581741,2.910551719,1.028397632
1.64617E+18,10.26050269,1.014222051,1.52087335,-0.409303197,1.873294217,3.230457948,1.10447421
1.64617E+18,10.27048364,1.12366793,1.598611839,-0.233181071,1.967882832,3.552661107,1.131208327
1.64617E+18,10.28046582,1.408802968,1.536412864,-0.059223849,2.085377126,3.87882193,1.096938944
1.64617E+18,10.29044653,1.853767334,1.493431216,0.096132589,2.382442361,4.199862735,0.98961705
1.64617E+18,10.30042773,2.414489246,1.524286373,0.199843139,2.862366948,4.491727094,0.827722584
1.64617E+18,10.31040869,2.838183445,1.752621666,0.022973537,3.335790124,4.721615578,0.641576842
1.64617E+18,10.32038965,3.370240988,1.885820761,-0.112636784,3.86361635,4.871880622,0.445370464
1.64617E+18,10.33037183,3.908822964,1.839098757,0.006867,4.319864391,4.906788458,0.372732096
1.64617E+18,10.34035278,4.329315736,1.791858867,0.212582866,4.690301101,4.82555486,0.541918075
1.64617E+18,10.35033374,4.58354418,1.742635694,0.443411949,4.923644034,4.650623273,0.785114674
1.64617E+18,10.36031494,4.750520457,1.75058753,0.574755406,5.095325808,4.403161825,1.016078412
1.64617E+18,10.37029663,4.885315881,1.764012829,0.60788501,5.229491055,4.090070803,1.217057342
1.64617E+18,10.38027783,4.978790283,1.689029776,0.635740839,5.295785181,3.714202387,1.377017792
1.64617E+18,10.39025879,5.028108733,1.536978097,0.676264062,5.301085944,3.285469085,1.48132838
1.64617E+18,10.4002395,4.957250067,1.242405368,0.721540543,5.161251794,2.814192302,1.51440522
1.64617E+18,10.41022192,4.689291204,0.906454919,0.774205746,4.83844056,2.354034927,1.427968132
1.64617E+18,10.42020264,4.0763446,0.762430479,0.740885441,4.212694715,1.972780197,1.2053658
1.64617E+18,10.43018384,3.354497475,0.839231395,0.588041588,3.507528411,1.708580963,0.947391382
1.64617E+18,10.44016479,2.792013814,0.803120801,0.457219817,2.94098523,1.559307618,0.749014958
1.64617E+18,10.45014575,2.333277528,0.56955696,0.478713491,2.449029555,1.5090813,0.667034029
1.64617E+18,10.46012769,1.854271192,0.333853184,0.556011688,1.964415587,1.5478888,0.729001151
1.64617E+18,10.47010864,1.367683022,0.130720722,0.525003021,1.470806897,1.680016242,0.893661494
1.64617E+18,10.48008984,0.922400676,-0.075586279,0.400548959,1.008452161,1.913220315,1.091105485
1.64617E+18,10.4900708,0.445427892,-0.30899113,0.228553429,0.588318107,2.246158944,1.259237793
1.64617E+18,10.50005273,-0.066268416,-0.555665213,0.009175386,0.55967805,2.670961697,1.342119788
1.64617E+18,10.51003394,-0.536152119,-0.83750764,-0.252148422,1.025893254,3.121517047,1.313691879
1.64617E+18,10.52001465,-0.951442062,-1.161432135,-0.461453509,1.570702373,3.507207215,1.203360095
1.64617E+18,10.52999585,-1.206058628,-1.50297529,-0.588121266,2.014794967,3.806684206,1.046602333
1.64617E+18,10.53997681,-1.445375334,-1.840058542,-0.687342651,2.438722045,4.042679965,0.866525191
1.64617E+18,10.54995898,-1.80365335,-2.057765181,-0.749399294,2.837104554,4.243784393,0.68536614
1.64617E+18,10.55993994,-2.338545824,-2.183872272,-0.746769165,3.285690012,4.432427369,0.509197167
1.64617E+18,10.56992065,-2.991459697,-2.262991401,-0.62585051,3.802847626,4.605531803,0.363259437
1.64617E+18,10.57990186,-3.618071839,-2.344327622,-0.48013187,4.337838453,4.732160448,0.270157589
1.64617E+18,10.58988354,-3.997188645,-2.701766265,-0.336423985,4.836345636,4.777685437,0.236082264
1.64617E+18,10.59986475,-4.002608917,-3.098113315,-0.193355695,5.065231552,4.711306375,0.295977762
1.64617E+18,10.6098457,-3.688399175,-3.193880797,-0.19111082,4.882794934,4.534057883,0.494864304
1.64617E+18,10.61982666,-3.374369466,-3.052409548,-0.374117317,4.565472277,4.294430587,0.771069399
1.64617E+18,10.62980884,-3.376725674,-2.71244811,-0.615474589,4.374752564,4.028033668,1.043477139
1.64617E+18,10.63978979,-3.757190387,-2.258044592,-0.764967523,4.449766319,3.751749722,1.258671593
1.64617E+18,10.649771,-4.352725254,-1.720592789,-0.636490197,4.723534318,3.451690783,1.405588931
1.64617E+18,10.65975195,-4.870467856,-1.144240762,-0.36997229,5.016734351,3.128281735,1.447193678
1.64617E+18,10.66973291,-5.034027017,-0.581343844,-0.129350858,5.06913408,2.796728274,1.353319185
1.64617E+18,10.67971484,-4.791559154,0.098378541,0.070557345,4.793088337,2.477113022,1.139415153
1.64617E+18,10.6896958,-4.11193263,0.703592506,0.084752898,4.172555023,2.201729476,0.839779006
1.64617E+18,10.699677,-3.125836019,1.027396005,0.125646341,3.292746631,2.004986163,0.527358194
1.64617E+18,10.70965796,-2.161843103,1.217162498,0.166557321,2.486521967,1.901127635,0.328170987
1.64617E+18,10.71963989,-1.344367613,1.342015789,0.085926398,1.901503091,1.871850237,0.28483863
1.64617E+18,10.72962109,-0.752950119,1.416003401,0.162062786,1.611913105,1.899178698,0.299124359
1.64617E+18,10.73960181,-0.296728446,1.367482531,0.376905194,1.449176928,1.961460516,0.297663835
1.64617E+18,10.74958276,0.205840552,1.342633337,0.611071458,1.489443835,2.066274817,0.282999657
1.64617E+18,10.75956372,0.68755907,1.337822721,0.794715961,1.701199744,2.207573045,0.31107092
1.64617E+18,10.76954565,0.992415877,1.299360012,0.913692615,1.872981556,2.370531021,0.413192084
1.64617E+18,10.77952686,1.160907235,1.329269413,1.021709119,2.039252878,2.560250786,0.553064251
1.64617E+18,10.78950781,1.237239364,1.450444892,1.108156545,2.205121892,2.77557842,0.706260209
1.64617E+18,10.79948877,1.152559093,1.595647728,1.098525963,2.254161358,3.01913777,0.868800238
1.64617E+18,10.80947095,1.046867599,1.652109036,0.99354627,2.193747986,3.297445948,1.012973072
1.64617E+18,10.81945166,1.12031102,1.672405389,0.823204097,2.174787703,3.61143278,1.104676771
1.64617E+18,10.82943286,1.387375565,1.66608963,0.541625582,2.234731278,3.945879174,1.125183875
1.64617E+18,10.83941382,1.820979163,1.687923276,0.267501036,2.497319944,4.276869451,1.05796181
1.64617E+18,10.849396,2.358833994,1.691091385,-0.013764248,2.902426113,4.575857101,0.927199588
1.64617E+18,10.85937695,2.886510546,1.641034099,-0.262975375,3.330779502,4.820210164,0.761090582
1.64617E+18,10.86935791,3.37234702,1.614708987,-0.483985221,3.770179204,4.998962227,0.578231759
1.64617E+18,10.87933911,3.836677765,1.574153105,-0.615830343,4.192529223,5.099649398,0.42207553
1.64617E+18,10.88931982,4.322743372,1.531634398,-0.710088151,4.640715395,5.117517539,0.385492004
1.64617E+18,10.89930151,4.752911736,1.459153099,-0.809024473,5.037243128,5.0332783,0.541111105
1.64617E+18,10.90928271,5.061180982,1.407524619,-0.92237978,5.33361631,4.824004464,0.827829454
1.64617E+18,10.91926367,5.258060813,1.340931793,-1.008383408,5.519251642,4.489802368,1.161849508
1.64617E+18,10.92924487,5.321218404,1.206081424,-0.986391941,5.544634051,4.047782706,1.48265069
1.64617E+18,10.93922681,5.304174914,1.087535124,-0.890123962,5.487196446,3.527389425,1.754318332
1.64617E+18,10.94920776,5.197904159,1.008959016,-0.73691756,5.345956736,3.047243285,1.808454615
1.64617E+18,10.95918896,4.996044785,0.934253611,-0.603077902,5.118300134,2.645385871,1.695996003
1.64617E+18,10.96916992,4.680121809,0.838072872,-0.462935345,4.777050913,2.332640696,1.486574699
1.64617E+18,10.97915088,4.287361093,0.788092159,-0.323925884,4.37121063,2.12582865,1.25848257
1.64617E+18,10.98913281,3.722783675,0.731560125,-0.181546581,3.798323007,2.017491674,1.096765561
1.64617E+18,10.99911377,2.892892356,0.542790534,-0.081612334,2.944504766,2.011571482,1.087255447
1.64617E+18,11.00909497,1.964426096,0.327635041,-0.011723463,1.991595352,2.117046399,1.216162468
1.64617E+18,11.01907593,1.09372638,0.103858434,0.029966391,1.099055028,2.337559649,1.364316223
1.64617E+18,11.02905811,0.266064427,-0.21114012,0.026587636,0.340701236,2.674692016,1.431503707
1.64617E+18,11.03903906,-0.443359853,-0.522665737,0.022025662,0.685735053,3.117643308,1.321880108
1.64617E+18,11.04901953,-1.073240642,-0.77580697,0.090678598,1.327382589,3.541716561,1.141619747
1.64617E+18,11.05900073,-1.687016098,-1.037528108,0.202458436,1.990848389,3.893016924,0.926396512
1.64617E+18,11.06898169,-2.328590247,-1.330324767,0.382371132,2.708930454,4.158293731,0.694517217
1.64617E+18,11.07896387,-2.788845706,-1.650042458,0.556414497,3.287840869,4.341875957,0.503509081
1.64617E+18,11.08894482,-3.079877401,-2.004386058,0.691243969,3.739121086,4.512985701,0.39536938
1.64617E+18,11.09892578,-3.237500158,-2.239275302,0.705883028,3.999253931,4.72668326,0.486385454
1.64617E+18,11.10890698,-3.406397758,-2.381831716,0.579531461,4.196727859,4.98518897,0.679638403
1.64617E+18,11.11888867,-3.668262396,-2.532135967,0.341209831,4.470378698,5.212961287,0.7547524
1.64617E+18,11.12886963,-3.785343299,-2.89967164,0.134251599,4.770214147,5.325446024,0.718657161
1.64617E+18,11.13885083,-3.823821206,-3.106043816,-0.031082244,4.926467589,5.277632273,0.768205016
1.64617E+18,11.14883179,-3.688291623,-3.134015234,-0.061580623,4.84038622,5.089610724,1.019980847
1.64617E+18,11.15881274,-3.689420335,-2.819018726,-0.066968746,4.643616456,4.811431451,1.36947891
1.64617E+18,11.16879492,-4.044488157,-2.070812879,-0.092880674,4.544752716,4.49588744,1.69631681
1.64617E+18,11.17877588,-4.843941668,-1.232814241,-0.076041695,4.998938304,4.172302805,1.946337525
1.64617E+18,11.18875708,-5.840287286,-0.647681526,-0.008077581,5.876096679,3.803526136,2.09821545
1.64617E+18,11.19873804,-6.577360036,-0.302407953,-0.006012392,6.584311032,3.348765669,2.092540446
1.64617E+18,11.20871997,-6.470052339,-0.123083943,-0.204423964,6.474451025,2.828398921,1.856991937
1.64617E+18,11.21870068,-5.556600692,0.202918235,-0.624153643,5.595226075,2.326172854,1.433950291
1.64617E+18,11.22868164,-4.123674506,0.618020255,-1.017487775,4.292076635,1.927869203,0.938015968
1.64617E+18,11.23866284,-2.734903103,0.770487529,-1.098319553,3.0462521,1.681777584,0.511175559
1.64617E+18,11.2486438,-1.612096759,0.767253662,-1.024828274,2.058593484,1.58579944,0.286857502
1.64617E+18,11.25862598,-0.86994802,0.840613497,-0.866734246,1.488176354,1.612587349,0.337751215
1.64617E+18,11.26860693,-0.64265493,0.944078255,-0.639489451,1.308906364,1.719619023,0.436515821
1.64617E+18,11.27858765,-0.686099519,1.018456035,-0.459549502,1.31117161,1.874363098,0.528154257
1.64617E+18,11.28856885,-0.611241554,1.112066339,-0.393170758,1.328492012,2.067873516,0.630869731
1.64617E+18,11.29855078,-0.392599388,1.245809039,-0.447216017,1.380643548,2.302943333,0.740070561
1.64617E+18,11.30853174,-0.077463763,1.356872874,-0.511617251,1.452190361,2.576999043,0.847431519
1.64617E+18,11.31851294,0.328328868,1.487653217,-0.527487678,1.612189564,2.879973571,0.928819414
1.64617E+18,11.3284939,0.734728233,1.618387383,-0.440619176,1.83116044,3.191418519,0.972623902
1.64617E+18,11.3384751,1.112960073,1.746446777,-0.254171891,2.086470661,3.497671627,0.978237917
1.64617E+18,11.34845679,1.425209913,1.838802989,0.007410788,2.326472576,3.789630465,0.948727518
1.64617E+18,11.35843774,1.715335599,1.871201284,0.319556656,2.558493095,4.055974362,0.871280206
1.64617E+18,11.3684187,2.047989345,1.932986417,0.477516463,2.856347111,4.29487232,0.746517832
1.64617E+18,11.37839966,2.426313539,2.06480604,0.622804274,3.246275795,4.488109046,0.580862256
1.64617E+18,11.38838184,2.832152932,2.239118066,0.708308136,3.679190177,4.61739187,0.408328273
1.64617E+18,11.39836279,3.284142082,2.394066051,0.683486122,4.121200645,4.677777985,0.293669225
1.64617E+18,11.40834375,3.745931911,2.346380171,0.741782536,4.481935644,4.668311475,0.312387319
1.64617E+18,11.41832495,4.090981028,2.195833635,0.88504549,4.726639043,4.591052216,0.424388139
1.64617E+18,11.42830591,4.359292942,2.034548264,0.897438085,4.893691521,4.449404474,0.567689087
1.64617E+18,11.43828784,4.555780559,1.905180126,0.822057996,5.006059045,4.237219124,0.734119949
1.64617E+18,11.4482688,4.596439902,1.830158495,0.649982569,4.989911545,3.953576204,0.909318347
1.64617E+18,11.45824976,4.597012149,1.785280073,0.397165235,4.947472674,3.622747636,1.06122055
1.64617E+18,11.46823096,4.491458017,1.654498561,0.14568704,4.78871437,3.256682193,1.167198405
1.64617E+18,11.47821289,4.288908323,1.486167363,-0.006114245,4.539104032,2.885024797,1.211087493
1.64617E+18,11.48819409,4.056255167,1.373490832,-0.069610639,4.283051329,2.536188101,1.1865535
1.64617E+18,11.49817505,3.802759129,1.319511989,-0.104401089,4.026535542,2.228048207,1.088992405
1.64617E+18,11.50815601,3.47811801,1.286092534,-0.088808749,3.709343054,1.973450939,0.923851965
1.64617E+18,11.51813672,3.091944271,1.180618482,-0.056485857,3.310161631,1.788358667,0.720579187
1.64617E+18,11.5281189,2.564452428,1.048326565,-0.087642262,2.77183802,1.692381696,0.556796639
1.64617E+18,11.53810034,1.995387051,0.842720406,-0.124685533,2.169629841,1.707533094,0.587195988
1.64617E+18,11.54808105,1.567429934,0.571674683,-0.210278389,1.681625863,1.87052298,0.857044133
1.64617E+18,11.55806201,1.199930501,0.196115862,-0.421433926,1.286818243,2.204267649,1.269215259
1.64617E+18,11.56804395,0.867748464,-0.219200969,-0.590295359,1.072140416,2.706886111,1.721127891
1.64617E+18,11.5780249,0.556664161,-0.616031127,-0.643955783,1.050737069,3.313091036,2.07066635
1.64617E+18,11.58800586,0.300759309,-1.007965913,-0.580962151,1.20165239,3.939683949,2.2329526
1.64617E+18,11.59798706,0.06312778,-1.398673788,-0.481448761,1.480562863,4.551240779,2.236776547
1.64617E+18,11.60796802,-0.307882292,-1.788077595,-0.402135716,1.858420331,5.137490103,2.120376864
1.64617E+18,11.6179502,-0.877764247,-2.141052244,-0.412028384,2.350391919,5.682812832,1.896335255
1.64617E+18,11.62793115,-1.71992585,-2.333013324,-0.380645331,2.923352009,6.13310773,1.555581109
1.64617E+18,11.63791211,-2.834439582,-2.525856448,-0.149732369,3.799528697,6.415807181,1.15078714
1.64617E+18,11.64789331,-4.013118036,-2.987854366,0.398370738,5.019072557,6.460981722,1.05180765
1.64617E+18,11.657875,-5.159298826,-3.522045706,0.911501389,6.31300286,6.240287246,1.476853607
1.64617E+18,11.6678562,-6.002890754,-3.663639997,1.199877821,7.134189668,5.782160323,2.000848098
1.64617E+18,11.67783716,-6.394566597,-3.375547277,1.117498447,7.316666192,5.180978831,2.372874997
1.64617E+18,11.68781787,-6.695875356,-2.831119498,0.831705675,7.317220697,4.562516097,2.536003755
1.64617E+18,11.69779907,-6.955010277,-2.254159568,0.683424893,7.3430561,3.945455065,2.541368169
1.64617E+18,11.70778101,-7.054329898,-1.827075142,0.598679448,7.311647623,3.332309299,2.382358572
1.64617E+18,11.71776221,-6.666260555,-1.477139714,0.589330021,6.853340893,2.751790475,2.02200141
1.64617E+18,11.72774316,-5.62462092,-1.048627302,0.574895983,5.75034652,2.242930138,1.498234505
1.64617E+18,11.73772388,-4.19081912,-0.564580925,0.437738579,4.251274113,1.864503597,0.937532695
1.64617E+18,11.74770605,-2.783091672,-0.152514621,0.373098861,2.812127793,1.653674344,0.522117066
1.64617E+18,11.75768701,-1.674731202,0.156533208,0.411915206,1.731733634,1.602878147,0.422064514
1.64617E+18,11.76766821,-0.934083515,0.396958752,0.479204343,1.122374744,1.667194797,0.481604862
1.64617E+18,11.77764917,-0.634834027,0.794435391,0.497363173,1.13203885,1.778282948,0.471128787
1.64617E+18,11.78763013,-0.304658654,0.891022372,0.654199968,1.146610379,1.878203055,0.42740265
1.64617E+18,11.79761206,0.038615854,0.751679953,0.949450815,1.211598442,1.975067379,0.354100044
1.64617E+18,11.80759302,0.264134921,0.86329733,1.205972776,1.506459383,2.055278505,0.246604658
1.64617E+18,11.81757397,0.443586063,1.07212362,1.329692022,1.764737523,2.106533929,0.167922631
1.64617E+18,11.82755518,0.549758035,1.222616964,1.438210264,1.966081103,2.169973451,0.145094333
1.64617E+18,11.83753589,0.481913164,1.420499251,1.530461263,2.14298159,2.290033734,0.319098517
1.64617E+18,11.84751831,0.254099264,1.7592858,1.466126591,2.304165824,2.473987619,0.593526345
1.64617E+18,11.85749902,-0.04306465,2.046011907,1.205044117,2.374900127,2.713306344,0.88682102
1.64617E+18,11.86747998,-0.278441678,2.018362853,0.914393311,2.233256255,3.00699648,1.167888456
1.64617E+18,11.87746118,-0.515080105,1.965498109,0.643189913,2.131239919,3.36854613,1.407457204
1.64617E+18,11.88744287,-0.607733838,1.969467012,0.475559849,2.115253626,3.787089929,1.588021505
1.64617E+18,11.89742407,-0.303026669,1.965896168,0.313773542,2.013709696,4.234297779,1.68120475
1.64617E+18,11.90740503,0.351118207,1.985398741,0.106413744,2.019013631,4.709298364,1.657563917
1.64617E+18,11.91738599,1.214421383,2.060338539,-0.189799153,2.399132741,5.176611036,1.482747464
1.64617E+18,11.92736719,2.223628236,2.204523722,-0.472694157,3.166683934,5.5676474,1.184286687
1.64617E+18,11.93734912,3.183388629,2.292511218,-0.686220223,3.982520438,5.81603909,0.874678282
1.64617E+18,11.94733032,4.058452969,2.212217784,-0.83676632,4.697353074,5.906966581,0.711363391
1.64617E+18,11.95731128,4.799686346,2.068110926,-0.949296136,5.311801482,5.839701977,0.842310491
1.64617E+18,11.96729199,5.428688014,1.937026047,-0.992565077,5.848752764,5.624519425,1.163360945
1.64617E+18,11.97727417,5.985782383,1.783591974,-0.943201326,6.316677909,5.265100411,1.534555144
1.64617E+18,11.98725513,6.347292805,1.57447693,-0.791101059,6.587332119,4.763821765,1.887356703
1.64617E+18,11.99723608,6.582288725,1.405705587,-0.667319269,6.763715551,4.182747059,2.117015391
1.64617E+18,12.00721704,6.547065436,1.207495967,-0.680169179,6.692140348,3.633763765,2.088152511
1.64617E+18,12.017198,6.194174373,0.988233623,-0.682160353,6.309496383,3.157636906,1.867699524
1.64617E+18,12.02717993,5.584854142,0.686603377,-0.516981408,5.650600832,2.771820698,1.547873343
1.64617E+18,12.03716089,4.877078214,0.322789939,-0.198938299,4.891795345,2.494647046,1.221267775
1.64617E+18,12.04714185,4.022055375,0.05138415,0.136736767,4.024707035,2.32225875,0.965646871
1.64617E+18,12.05712305,3.135385938,-0.077552611,0.385731402,3.159975965,2.261149011,0.870638352
1.64617E+18,12.067104,2.191471933,-0.136802672,0.511652614,2.254562619,2.315098974,0.938717151
1.64617E+18,12.07708618,1.167104336,-0.188564424,0.549948954,1.303891454,2.497217217,1.075938581
1.64617E+18,12.08706714,0.177063955,-0.357384867,0.66633983,0.77658506,2.827811382,1.162868555
1.64617E+18,12.0970481,-0.77757135,-0.606059183,0.80675397,1.273882611,3.253261461,1.111730365
1.64617E+18,12.1070293,-1.540627852,-0.837225316,0.808569934,1.930871758,3.651612809,1.042651478
1.64617E+18,12.11701099,-1.999981978,-1.189349485,0.771077019,2.451334306,3.999572012,0.989599514
1.64617E+18,12.12699219,-2.341722116,-1.534144335,0.671266253,2.878864306,4.336345205,0.978387928
1.64617E+18,12.13697314,-2.685305836,-1.613106813,0.471898185,3.167912391,4.715572087,1.070573825
1.64617E+18,12.1469541,-2.951478985,-1.705662931,0.179489721,3.413609642,5.167125791,1.258384722
1.64617E+18,12.15693628,-3.132752082,-1.963638745,-0.126913219,3.699475597,5.636093334,1.384999205
1.64617E+18,12.16691724,-3.213187555,-2.471888711,-0.420582497,4.075745048,6.005314685,1.309603458
1.64617E+18,12.17689819,-3.311945451,-3.135567724,-0.670666534,4.609833101,6.172879223,1.149394273
1.64617E+18,12.18687915,-3.506962411,-3.493396243,-0.89956779,5.031085854,6.083788028,1.29269086
1.64617E+18,12.19685986,-3.868713656,-3.425347666,-0.969670889,5.257396087,5.767588942,1.799059018
1.64617E+18,12.20684204,-4.449779268,-2.953249501,-0.866545007,5.410463788,5.329450598,2.326235227
1.64617E+18,12.216823,-5.399086072,-2.088897694,-0.58983713,5.819066233,4.878306639,2.677695082
1.64617E+18,12.22680396,-6.564242781,-1.187342822,-0.070362772,6.671133125,4.408053312,2.876717577
1.64617E+18,12.23678516,-7.642205775,-0.472108978,0.639686801,7.683449433,3.8651639,2.910474206
1.64617E+18,12.24676611,-8.010830413,-0.182324068,1.206889818,8.103285074,3.236897896,2.688033791
1.64617E+18,12.25674805,-7.276625911,0.040536593,1.298514501,7.391689101,2.591404976,2.166342242
1.64617E+18,12.266729,-5.639609815,0.17705168,1.1144262,5.751390434,2.046688442,1.460785874
1.64617E+18,12.27670996,-3.625768239,0.365894336,0.741822429,3.718921148,1.692515863,0.799144288
