time,seconds_elapsed,z,y,x
1646167855615744300,0.019744140625,-3.0366338870197533,1.2248776025369763,0.5066070214875042
1646167855625725200,0.02972509765625,-1.9191642275393008,1.4114973217353224,0.3993672015395015
1646167855635706400,0.039706298828125,-0.9254641555905342,1.4829206359580158,0.19785550855975598
1646167855645688300,0.049688232421875,0.3472264607399702,1.3414867969200015,-0.023612675049342214
1646167855655669500,0.05966943359375,1.364444186398387,1.094486258777976,-0.16741963642686605
1646167855665650400,0.069650390625,1.915933575055003,0.7845914575666189,-0.12098339087925851
1646167855675631400,0.07963134765625,2.015730166324973,0.44013300023525953,0.1097593284882605
1646167855685612500,0.089612548828125,1.9055349306374787,0.14858897148966788,0.37476171606052666
1646167855695593500,0.099593505859375,1.6135492956042288,-0.02548398534655571,0.42162163038030265
1646167855705574400,0.109574462890625,1.4455951139092444,-0.02139788507670164,0.29418131844662126
1646167855715555300,0.119555419921875,1.3787006752878426,0.12260258957892656,0.009805281634256244
1646167855725537300,0.129537353515625,1.3264420802623034,0.32100831589996814,-0.32976777827572074
1646167855735518200,0.139518310546875,1.187428746369481,0.45347178975790736,-0.6016701544947922
1646167855745499400,0.14949951171875,1.0621364793151618,0.5500172702774405,-0.7986465055998414
1646167855755480300,0.159480224609375,0.9929910468965768,0.6068973876237869,-0.9417316920414567
1646167855765461500,0.16946142578125,0.7381313196867704,0.691051880864799,-1.0381435362439602
1646167855775442400,0.1794423828125,0.5782166520625353,0.8184004959270358,-1.0688248710379005
1646167855785424100,0.189424072265625,0.21586861003637312,0.886845671121776,-0.906152794464305
1646167855795405300,0.1994052734375,-0.5468523765057325,0.9742486447647213,-0.7931831986926495
1646167855805386200,0.20938623046875,-1.1792296578228474,1.0507529155135154,-0.5753812825061381
1646167855815367200,0.2193671875,-0.5474328067421913,0.7895581400632857,-0.4530961979111656
1646167855825348400,0.229348388671875,0.22924130182862282,0.30930911027789115,-0.6064074852149933
1646167855835329300,0.239329345703125,0.579395632714033,0.22530630046725272,-0.606998984834738
1646167855845310500,0.249310546875,0.563058245897293,0.35955724226385355,-0.6537691019792109
1646167855855292400,0.25929248046875,0.4991770176172256,0.462280826896429,-0.768806224739924
1646167855865273300,0.2692734375,0.4567161785066127,0.5008554722234606,-0.8211857427313923
1646167855875254300,0.279254150390625,0.47841363105177875,0.4124003591790795,-0.6605337007433175
1646167855885235200,0.289235107421875,0.5829606317192316,0.15043722970485687,-0.3304161226492375
1646167855895216000,0.299216064453125,0.7122592118054628,-0.0410629550114274,-0.17163436804506926
1646167855905197300,0.309197265625,0.8380190963715315,-0.010562310546636582,-0.1569937752088532
1646167855915178200,0.31917822265625,1.0132102435827255,-0.05189502241015434,-0.11684935981445013
1646167855925160400,0.329160400390625,1.20507370865345,-0.16080927837640047,-0.14701591348666698
1646167855935141400,0.339141357421875,1.3945640148520468,-0.2768941566243768,-0.18469854187741874
1646167855945122300,0.349122314453125,1.5184405698895453,-0.4522635830119252,-0.162628273964487
1646167855955103500,0.359103515625,1.5170979231089352,-0.7154103693127631,-0.2075048324473202
1646167855965084400,0.36908447265625,1.528613004335761,-0.9722560096427798,-0.2837500869337469
1646167855975065300,0.3790654296875,1.525733649507165,-1.2105085931837558,-0.38925654375050217
1646167855985046300,0.38904638671875,1.4972142419874668,-1.4146122388854623,-0.5204333753313869
1646167855995028200,0.3990283203125,1.4029068957835436,-1.4171817971125245,-0.6233953718297183
1646167856005009400,0.409009521484375,1.298141283929348,-1.099385428996384,-0.8050143601313233
1646167856014990300,0.418990234375,1.2035790861815214,-0.9573761281579732,-0.8196421665512025
1646167856024971300,0.42897119140625,1.0820371115714311,-1.0287833680287002,-0.7896321551475673
1646167856034952400,0.438952392578125,0.9965963779121637,-0.9785495568290352,-0.7704218432430178
1646167856044933400,0.448933349609375,0.9938912106066942,-0.9858052270457148,-0.6369564988661557
1646167856054914300,0.458914306640625,0.9745213242262601,-0.9757824302032589,-0.5154430562308058
1646167856064896300,0.468896240234375,0.9794459211468696,-0.8920736349031329,-0.45827181045077736
1646167856074877200,0.478877197265625,0.9075327775806188,-0.8515563310757279,-0.3127519807407632
1646167856084858400,0.4888583984375,0.7810311347365378,-0.8595341780871152,-0.21385211911480873
1646167856094839300,0.49883935546875,0.5727952115356921,-0.8846557598620652,-0.161135587721318
1646167856104820200,0.5088203125,0.3449140921443701,-0.9838707518517971,-0.18725914961304516
1646167856114800400,0.51880029296875,0.12993337085843085,-1.0862971071034668,-0.26677655763793734
1646167856124781300,0.52878125,0.1482528714030981,-1.2380509723648427,-0.2787353640442714
1646167856134763300,0.53876318359375,-0.035250761601328846,-1.3147533960342406,-0.32784371487796304
1646167856144744400,0.548744384765625,-0.20324585982859134,-1.2420356580868364,-0.3169162242807448
1646167856154725400,0.558725341796875,-0.278812849727273,-1.2149980135574936,-0.3366702146079391
1646167856164706300,0.568706298828125,-0.4732125552773475,-1.3352978791519998,-0.2833353686530143
1646167856174687500,0.5786875,-0.46471126891374587,-1.5503671555042267,-0.2397024900883436
1646167856184668400,0.58866845703125,-0.3153483904421329,-1.7255606408029793,-0.17438973116781561
1646167856194650400,0.598650390625,-0.2622270411074161,-1.8699255648568271,-0.08231913104001432
1646167856204631300,0.60863134765625,-0.3053846303105354,-2.0240677865594625,-0.03850077637322247
1646167856214612200,0.6186123046875,-0.42888299968540666,-2.014208363585174,-0.05624009327660314
1646167856224593400,0.628593505859375,-0.5487316143810749,-2.05127406565398,0.03155201668124646
1646167856234574300,0.63857421875,-0.5881774895846843,-2.1933128848478196,0.06037680035568773
1646167856244555300,0.64855517578125,-0.6173351950079202,-2.3924019172579047,-0.029001455415599047
1646167856254537200,0.658537109375,-0.7245908701121807,-2.480373630699515,-0.28726565730664877
1646167856264518100,0.66851806640625,-0.7649976993024349,-2.341082648909092,-0.3604743571087718
1646167856274499300,0.678499267578125,-0.9233984552323817,-2.0579510591998695,-0.11119038420468569
1646167856284480300,0.688480224609375,-1.490238557755947,-1.6933014622330664,0.14938176583517343
1646167856294461200,0.698461181640625,-2.433659225797653,-1.3745011777713894,0.28557532959952947
1646167856304442400,0.7084423828125,-3.398198085191846,-1.277602061508596,0.4035593194670975
1646167856314424300,0.71842431640625,-4.257527680617571,-1.005926224054396,0.31424411899466065
1646167856324405500,0.728405517578125,-4.851833882215619,-0.5125660760223866,0.21347623500712215
1646167856334386400,0.738386474609375,-5.007849204313755,-0.13706278434693814,-0.007735599220730364
1646167856344367400,0.748367431640625,-4.54324724099338,0.0019505495458841324,-0.11881715275608003
1646167856354348500,0.7583486328125,-3.6263106752514838,-0.13889438368827103,0.11241682072710245
1646167856364329200,0.7683291015625,-2.5488790116488933,-0.2648658651784062,0.34731658670883625
1646167856374311400,0.7783115234375,-1.439096399539709,-0.058987611019611356,0.475462306965515
1646167856384292400,0.788292236328125,-0.4821691841930151,0.025284663382172584,0.7110859302423894
1646167856394273300,0.798273193359375,0.17020517549216746,0.12250848155468702,0.7739086624454706
1646167856404254500,0.80825439453125,0.6947147872865199,0.2271761859923601,0.780648565159738
1646167856414235400,0.8182353515625,0.8949819235652685,0.32370676120370623,0.8714905733406543
1646167856424216300,0.82821630859375,0.8522767543047666,0.5660416456222533,0.8723216904025525
1646167856434198300,0.8381982421875,0.7945289142131805,0.8898767093807458,0.8323748799394816
1646167856444179200,0.84817919921875,0.7332903093963861,1.0292027624845503,0.8510691320806741
1646167856454160400,0.858160400390625,0.6154138715565204,1.0561638346463442,0.8881804268568754
1646167856464141300,0.868141357421875,0.4744558333367109,1.155794421699643,0.9284810191936791
1646167856474122200,0.878122314453125,0.3350561304748058,1.3485115809902548,0.9665769410930574
1646167856484103400,0.888103515625,0.1263794777691364,1.5566379063367843,0.9813571615956723
1646167856494085400,0.89808544921875,-0.05779986253976822,1.7564064454436301,0.9121798727340996
1646167856504066300,0.90806640625,-0.12959785529375076,1.8763491681635378,0.817881440488994
1646167856514047500,0.918047607421875,-0.02454582771360874,1.8869409970656037,0.6696915513195097
1646167856524028400,0.9280283203125,0.32072482278347014,1.8449834313020108,0.6032589945888146
1646167856534009300,0.93800927734375,0.8173544940054416,1.7450515232145785,0.5547300876108929
1646167856543991300,0.9479912109375,1.3296014210760592,1.549122708401084,0.45519452189728615
1646167856553972200,0.95797216796875,1.854082391297817,1.4289236728325485,0.4184447539098561
1646167856563953400,0.967953369140625,2.429522564384341,1.2880600348979234,0.3776960524793714
1646167856573934300,0.977934326171875,2.936746694856882,1.0321604432463645,0.3307809739062562
1646167856583915300,0.987915283203125,3.368484499451518,0.893455444650352,0.26186587964482605
1646167856593896400,0.997896484375,3.737166420674324,0.7487450681596994,0.28215547468606383
1646167856603878100,1.007878173828125,3.964961030825972,0.5549050423189997,0.30500491027794774
1646167856613859300,1.017859375,4.099837118783593,0.3551896947041154,0.18793854671195148
1646167856623840300,1.02784033203125,4.212934505653381,0.2186518110141158,0.02452361588180065
1646167856633821200,1.0378212890625,4.34262939158082,0.05183715474307537,-0.10215616000816226
1646167856643802400,1.04780224609375,4.383295163968206,-0.13779665157943963,-0.24043179074358192
1646167856653784300,1.057784423828125,4.358353614935279,-0.2808347109436989,-0.2158982014570385
1646167856663765500,1.067765625,4.199180705589056,-0.2612558579877019,-0.13185206396132707
1646167856673746400,1.077746337890625,3.8669805490672586,-0.1757370906561613,0.08858973574209958
1646167856683727400,1.087727294921875,3.4268846659719943,-0.20235475620776414,0.3998986780676991
1646167856693708500,1.09770849609375,2.993554623749852,-0.17393617871403694,0.5567806269325316
1646167856703690200,1.107690185546875,2.4858640448093414,-0.203451611533761,0.7462757554367184
1646167856713671400,1.11767138671875,1.9046657465875148,-0.22333587717711925,0.8669999839231372
1646167856723652400,1.12765234375,1.2091051561266184,-0.1699494471654296,0.7985183491755277
1646167856733633300,1.13763330078125,0.6391741018503904,-0.19898674107939004,0.6317808497939258
1646167856743614500,1.147614501953125,0.3697667938500643,-0.3026274405568838,0.4702257945515215
1646167856753595400,1.157595458984375,-0.051591655549407,-0.39164311009347436,0.35164405798651277
1646167856763577300,1.167577392578125,-0.24565350744724274,-0.40873803727924823,0.3563572771787643
1646167856773558300,1.177558349609375,-0.3191325851559639,-0.6031415422216058,0.2435354923799634
1646167856783539200,1.187539306640625,-0.4709890340089798,-1.0393430482268333,0.3755621822558343
1646167856793520400,1.197520263671875,-0.9261047915816306,-1.5254410963013767,0.5796564756073057
1646167856803501300,1.207501220703125,-1.5916729793608189,-1.874034461480379,0.8772131157059222
1646167856813483300,1.217483154296875,-2.4202111306816336,-1.9939146403580903,1.0421146318320185
1646167856823464400,1.22746435546875,-3.065096011394262,-1.6927572723537683,0.7294605950403958
1646167856833445400,1.2374453125,-3.2607109379529953,-1.64756496245265,0.3095242143332958
1646167856843426300,1.24742626953125,-3.4388089125216004,-1.7835589485242962,-0.0809282977361232
1646167856853407500,1.257407470703125,-3.616144086024165,-2.037337894760072,-0.34803492757864296
1646167856863389200,1.26738916015625,-3.7283342949211593,-2.1678297762840986,-0.4916970371253788
1646167856873370400,1.277370361328125,-3.5562487125098703,-2.029446556988358,-0.45629269239753484
1646167856883351300,1.287351318359375,-3.401884664750099,-1.783570346701145,-0.2816385016072541
1646167856893332200,1.297332275390625,-3.5642204220414158,-1.3695844718962906,0.11829400566481053
1646167856903314400,1.307314453125,-3.8979339057356115,-0.9748603469222783,0.7606351932439953
1646167856913295400,1.31729541015625,-4.18994058355689,-0.5376180996924639,0.9979660588301718
1646167856923276500,1.327276611328125,-4.299804979854822,0.03528407934904098,1.0431405408136547
1646167856933257200,1.33725732421875,-4.082212614765763,0.6467071277037263,0.9313075478564947
1646167856943238100,1.347238037109375,-3.632533495289087,1.072145247632265,0.5910570636089891
1646167856953220400,1.357220458984375,-2.3843553889244795,1.246788113310933,-0.08542838563434779
1646167856963201300,1.367201171875,-1.0359855544924736,1.3977134187936782,-0.8071884162347763
1646167856973182500,1.377182373046875,-0.033632220488786696,1.4238488537862897,-1.3854539489403366
1646167856983163400,1.387163330078125,1.1353028378129004,1.387728323613107,-1.8366963722109793
1646167856993144300,1.397144287109375,2.1657851187139747,1.2435492775201797,-2.0268781678050756
1646167857003126300,1.407126220703125,2.5082524022281167,1.0046610264241695,-1.9206370765708385
1646167857013107200,1.417107177734375,2.4391344423383474,0.7498360782667994,-1.4510899119332432
1646167857023088000,1.427088134765625,2.1963649658948183,0.5214318117842078,-0.9197042768895626
1646167857033069300,1.4370693359375,1.575432038655877,0.5220397145494818,-0.2902697344934568
1646167857043050200,1.44705029296875,0.848667331635952,0.8840697766676545,0.37627792930975557
1646167857053032400,1.457032470703125,0.4311334089607,0.9195335964977741,-0.09923545025587081
1646167857063013400,1.467013427734375,-0.3903203370571136,1.4006012491896749,0.009800495861284434
1646167857072994300,1.476994384765625,-0.9355629402786493,1.4870412230193615,0.03961304846405983
1646167857082975500,1.4869755859375,-1.388034320822358,1.5057918084576725,-0.16485446211397647
1646167857092956400,1.496956298828125,-1.4553922853022814,1.6796768415063619,-0.3269026711681858
1646167857102938400,1.5069384765625,-1.1194897671312094,1.7812647001072763,-0.42284521735850716
1646167857112919300,1.516919189453125,-0.49239188752174373,1.554506739526987,-0.32976043521948156
1646167857122901500,1.526901611328125,0.14134732979834078,1.0055866168364882,-0.047724239531531924
1646167857132882400,1.53688232421875,0.8017728939920663,0.8039376708105206,0.06981790658636018
1646167857142864100,1.546864013671875,1.4908733485281467,0.6789090231284499,0.08456190499812365
1646167857152845300,1.55684521484375,2.0626210968375203,0.560003534501791,0.06281288666250184
1646167857162826200,1.566826171875,2.563458156621456,0.4945926124364137,0.012806052619125693
1646167857172807200,1.57680712890625,3.0169302386403083,0.3886655555874109,0.0068048942418769
1646167857182788400,1.586788330078125,3.4054180995732546,0.32286884907484054,-0.0019389869722537694
1646167857192770300,1.596770263671875,3.7436587053030728,0.30902912429273127,0.004768346912972629
1646167857202751500,1.60675146484375,3.9700890413641927,0.260231775636971,-0.0350330637300387
1646167857212732400,1.616732421875,4.011321215462685,0.24100977329462767,-0.13274596232743932
1646167857222713300,1.62671337890625,3.8900510435312983,0.25688041938245293,-0.22811741236522792
1646167857232695300,1.6366953125,3.673914137947559,0.2785112364321947,-0.2812664168918505
1646167857242676200,1.64667626953125,3.340696913337707,0.26033172888010736,-0.29002350464742627
1646167857252657400,1.656657470703125,2.9461119045734403,0.23202011889219282,-0.26535927471853793
1646167857262638300,1.666638427734375,2.5810101799249647,0.10068126515001058,-0.18129209443479774
1646167857272619300,1.676619384765625,2.265522088751197,-0.011510989573597908,-0.19433803849071263
1646167857282601500,1.6866015625,2.05182322396934,-0.15494272443056106,-0.27515282938238234
1646167857292582400,1.69658251953125,1.8061305535554886,-0.26558921101689337,-0.41881797113642094
1646167857302563300,1.706563232421875,1.5385270801067352,-0.4966130123481154,-0.5557658238667994
1646167857312544300,1.716544189453125,1.275377078935504,-0.7501154797300696,-0.783256847961992
1646167857322526200,1.726526123046875,0.9527449612259864,-0.9646943422168492,-0.9692506903469562
1646167857332507400,1.73650732421875,0.7482020473241806,-1.1824144253388047,-0.9951363152969628
1646167857342488300,1.74648828125,0.45651627202033995,-1.387695005865395,-0.9085456809502095
1646167857352469500,1.756469482421875,-0.00528290883898735,-1.5377677861720322,-0.772614019525051
1646167857362451200,1.766451171875,-0.6644073273062706,-1.6778183541581033,-0.6313375630058348
1646167857372432100,1.77643212890625,-1.4550076698988674,-1.7507359985917805,-0.4360033165520057
1646167857382413300,1.786413330078125,-2.2380209183633326,-1.7845605267822742,-0.25258352590613065
1646167857392394200,1.796394287109375,-2.9986452248871323,-1.7759020040303468,-0.16354345258064568
1646167857402375200,1.806375244140625,-3.6928000402033327,-1.8120166889846323,-0.22069679737780243
1646167857412357400,1.816357421875,-4.341277976971864,-1.9531585593387484,-0.34971396670676763
1646167857422338300,1.82633837890625,-4.637955569213628,-2.197863095498085,-0.412306616481021
1646167857432319500,1.836319580078125,-4.544968657958507,-2.3405513185113667,-0.2991659019261598
1646167857442300400,1.846300537109375,-4.317689596113563,-2.2649589019104837,-0.09445157698020339
1646167857452282400,1.856282470703125,-4.181145282682777,-1.890741266131401,0.04086414450369775
1646167857462263300,1.86626318359375,-4.192786036115884,-1.414004628381133,0.11551672297120094
1646167857472244200,1.876244140625,-4.42867978157103,-0.8271271154791117,0.14815646182391792
1646167857482225400,1.886225341796875,-4.7108851963460445,-0.3687739834204316,0.13703894681362436
1646167857492207400,1.896207275390625,-4.762144843462109,-0.10981412741541861,0.10941508162785321
1646167857502188500,1.9061884765625,-4.327476246112584,0.1881061583638191,0.07445581378638744
1646167857512169500,1.91616943359375,-3.3891403339892623,0.5040861247077584,-0.025258432962372897
1646167857522150400,1.926150390625,-2.245595737531781,0.728055331352353,-0.05180489644128829
1646167857532132400,1.93613232421875,-1.2136188341587781,0.9225468068391084,0.029619258520379662
1646167857542113300,1.94611328125,-0.636131080892682,1.10415834248662,0.13494104295261203
1646167857552094200,1.95609423828125,-0.5119891529172659,1.2106231594741343,0.3358364671975374
1646167857562075400,1.966075439453125,-0.5460059888094664,1.3391229903981088,0.5485617742395028
1646167857572057300,1.976057373046875,-0.5557032069593668,1.4797650945365428,0.7158524139918386
1646167857582038500,1.98603857421875,-0.32614860139787194,1.4684583953633903,0.8880958173133432
1646167857592019200,1.996019287109375,-0.05950608193576336,1.4243804764449595,1.037380369851738
1646167857602000100,2.006000244140625,0.21503391277790068,1.412238495491445,1.1498054104179143
1646167857611982300,2.015982421875,0.4359007694929838,1.4000339706957339,1.2174405113387852
1646167857621963300,2.02596337890625,0.6079179628431797,1.3839552348151802,1.28004682431221
1646167857631944400,2.0359443359375,0.6877794350653886,1.467007904294133,1.3590262530028818
1646167857641925400,2.04592529296875,0.679542937117815,1.6038839338973163,1.3360630183055997
1646167857651907300,2.0559072265625,0.6386380952775478,1.6809198273047803,1.2332405033431946
1646167857661888300,2.06588818359375,0.5400502952754497,1.731895104521513,1.046700936708972
1646167857671869200,2.075869140625,0.6154460202604531,1.735272472000122,0.9087439069360495
1646167857681850400,2.085850341796875,0.9400754492670297,1.7358511486709116,0.7447944308377802
1646167857691832300,2.095832275390625,1.364112177965045,1.7212386859506368,0.5440421413905918
1646167857701813200,2.105813232421875,1.7518623722732065,1.7012860312461853,0.32884890986513343
1646167857711794400,2.11579443359375,2.1077602152466772,1.671917897942662,0.046948871244862675
1646167857721775400,2.125775390625,2.433463995486498,1.6373095258980987,-0.17301701804250477
1646167857731757300,2.13575732421875,2.793791929861903,1.6030466062903403,-0.33480635696481914
1646167857741738200,2.14573828125,3.2086335447132583,1.4765361956179142,-0.43559334751162676
1646167857751719200,2.15571923828125,3.6225177127093073,1.2988082234054803,-0.5042203820792958
1646167857761700400,2.165700439453125,3.9724358967512843,1.128565638512373,-0.5266423129741102
1646167857771682300,2.175682373046875,4.222346477121114,1.0023264459967614,-0.5253922398477793
1646167857781663500,2.18566357421875,4.416771317112445,0.88501991699934,-0.49230472069494424
1646167857791644400,2.19564453125,4.554783949530124,0.7972855194449424,-0.4913444242954254
1646167857801625300,2.205625244140625,4.58407258785665,0.7106617134809493,-0.5616991594385355
1646167857811607300,2.215607177734375,4.489840644976496,0.6521586711078882,-0.6464428507443517
1646167857821588200,2.225588134765625,4.327351158428192,0.6723989105820656,-0.7219180707063525
1646167857831569400,2.2355693359375,4.081210744246841,0.7431213830590248,-0.814960511540994
1646167857841551400,2.24555126953125,3.7531285444378852,0.806361390826106,-0.8867758207559585
1646167857851532300,2.2555322265625,3.3970798948168754,0.8508972826451062,-0.8123454336717725
1646167857861513500,2.265513427734375,3.040577656209469,0.8437725453317165,-0.7337513510368764
1646167857871494400,2.275494384765625,2.7340929557025433,0.7650362777471542,-0.6882732829969376
1646167857881476400,2.285476318359375,2.5284581549108025,0.28179858753979203,-0.35889307926669717
1646167857891457300,2.295457275390625,2.267049444448948,-0.34728491292893887,0.001633081094548106
1646167857901438200,2.305438232421875,1.8542232610732317,-0.6929442704826593,0.12148074594214558
1646167857911419400,2.31541943359375,1.2895803763329983,-0.8614876502424478,0.19684538166914134
1646167857921401300,2.3254013671875,0.7152654078841209,-0.9166472274065017,0.2541174574751407
1646167857931382500,2.335382568359375,0.043397243177890774,-0.92793376057446,0.2589714733775705
1646167857941363500,2.345363525390625,-0.5862339543014764,-1.2429098105728626,0.39413262535426763
1646167857951345400,2.355345458984375,-1.3189116847574711,-1.6406582518041133,0.5349994050940499
1646167857961326300,2.365326416015625,-2.15365278237164,-1.8555872429028153,0.519468877680786
1646167857971307300,2.375307373046875,-2.8739672903388738,-1.974455906650424,0.42030744250919666
1646167857981288400,2.385288330078125,-3.5729490874201058,-2.085522372214496,0.2582050921149552
1646167857991270400,2.3952705078125,-4.343433693701028,-2.1591803136214613,-0.07577164562530815
1646167858001251300,2.405251220703125,-4.9017386075913905,-2.2003899836272,-0.38852757188882675
1646167858011232300,2.415232177734375,-5.038723066005111,-2.199949838644266,-0.5584386963378638
1646167858021214200,2.425214111328125,-4.634882737639546,-2.3677301250770686,-0.5138992243222892
1646167858031195400,2.4351953125,-4.008505573520064,-2.674472599737346,-0.04948518478944897
1646167858041176300,2.44517626953125,-3.818659293490648,-2.4087828509554265,0.5241879055593163
1646167858051157200,2.4551572265625,-4.138804270559549,-1.615503644542396,0.73402914506495
1646167858061139500,2.465139404296875,-4.703148464614153,-0.9238602275252342,0.8997586364477872
1646167858071120400,2.475120361328125,-5.272864999356866,-0.3917494930773973,0.9476610090252011
1646167858081101300,2.485101318359375,-5.292690812811255,-0.11389058307409286,0.8023847422800958
1646167858091083300,2.495083251953125,-4.58616166909039,0.20327099426984785,0.5709051965380088
1646167858101064400,2.505064453125,-3.3840801279902455,0.6618912528321147,0.2803926662646234
1646167858111045400,2.51504541015625,-2.108172303178906,0.8427911330789327,0.04901066261287779
1646167858121025800,2.52502587890625,-1.0271861619651317,0.6916881329417228,0.018012626552581786
1646167858131008000,2.535008056640625,-0.3998468748152256,0.38923751025646924,0.10542400269769131
1646167858140989000,2.544989013671875,-0.14429448916614054,0.21761925309598446,0.1600919604199007
1646167858150969900,2.554969970703125,-0.04247019146084785,0.15173691412657497,0.2387863981567323
1646167858160951800,2.564951904296875,0.09308277284502983,-0.10779635785222053,0.5100841960787773
1646167858170932700,2.5749326171875,-0.03731120126247406,-0.05637509043365717,0.6885771613143384
1646167858180914000,2.584913818359375,-0.23729484442472457,0.30399814438819883,0.6757898681946098
1646167858190894800,2.594894775390625,-0.33209611162543295,0.5645329946249723,0.6025800358813256
1646167858200877000,2.604876953125,-0.3662754446029663,0.7752972672596573,0.5817101202014834
1646167858210858000,2.61485791015625,-0.3223731745123863,0.8771908308088779,0.6035709831474348
1646167858220839000,2.6248388671875,-0.2685159121185541,1.181229307207465,0.42450573444925244
1646167858230820900,2.63482080078125,-0.08692074308395385,1.5739894386321305,0.2790680665973574
1646167858240801800,2.6448017578125,0.24763971282839772,1.8574743718236684,0.14597126327194274
1646167858250782700,2.65478271484375,0.7077519635140895,1.999299256005883,-0.03448810666576028
1646167858260765000,2.664764892578125,1.2998054177492857,2.031236070753634,-0.18361768783815205
1646167858270745900,2.674745849609375,1.8033815471082926,1.9363553085759282,-0.24258432913497088
1646167858280726800,2.684726806640625,2.1390660386145113,1.748301172660291,-0.2330785419039428
1646167858290707700,2.694707763671875,2.367004441151023,1.4299924711078404,-0.18491839517317712
1646167858300690000,2.70468994140625,2.4893840356290338,1.2222156898513437,-0.16174027561619878
1646167858310670800,2.7146708984375,2.5770792702168226,1.0634817564442753,0.008795885396003723
1646167858320651800,2.72465185546875,2.517128951644897,0.8916139084368944,0.18542281929766757
1646167858330634000,2.734634033203125,2.5433248846530914,0.6709653706476092,0.3562905686181038
1646167858340615000,2.744614990234375,2.5605080746442077,0.4845192544505,0.40623906007036564
1646167858350595800,2.754595947265625,2.626996855074167,0.24780104086995122,0.3761304105978459
1646167858360577800,2.764577880859375,2.6824714895367623,0.11266250258386135,0.3346707113537937
1646167858370558700,2.774558837890625,2.694789703840017,0.08537760529518126,0.28607047443902117
1646167858380540000,2.784539794921875,2.6212328847199675,0.12417875285446643,0.2293925468675792
1646167858390520800,2.794520751953125,2.453675008866191,0.21952713254392145,0.15354403661377727
1646167858400503000,2.8045029296875,2.277224216982722,0.2463946812033653,0.044116935754567384
1646167858410483700,2.814483642578125,2.1443343344062566,0.21343173827826975,-0.14873239854834974
1646167858420464600,2.824464599609375,2.022642137670517,0.1810176614075899,-0.38167072826400394
1646167858430446800,2.83444677734375,1.981048729044199,0.10679799446463584,-0.6354450713898986
1646167858440427800,2.844427734375,2.015597479856014,0.009231354203820229,-0.8360450928848236
1646167858450409000,2.854408935546875,2.039493903750181,-0.13107611115276813,-0.9483119472146033
1646167858460391000,2.864390869140625,2.098680252212286,-0.36340251951515673,-0.9966901206102221
1646167858470371800,2.874371826171875,2.207669034719467,-0.6347831734150647,-1.0484288564801216
1646167858480352800,2.884352783203125,2.2724013268709182,-0.8704138840198516,-1.0388447433158754
1646167858490333700,2.894333740234375,2.2203350395470856,-1.1089029066652059,-0.9834441970027983
1646167858500316000,2.90431591796875,1.9476509018331765,-1.3678589632779359,-0.8873708640396595
1646167858510296800,2.914296875,1.4924287612766027,-1.5262994666963814,-0.668941317474097
1646167858520277800,2.92427783203125,0.9769318924993275,-1.528680224353075,-0.4019012500617653
1646167858530260000,2.934260009765625,0.24938860232234,-1.4646540346443653,-0.2157400882858783
1646167858540240600,2.94424072265625,-0.8703864114910363,-1.332598849326372,-0.2067623069843277
1646167858550221800,2.954221923828125,-2.2966747673839327,-1.1938064647078512,-0.4097646403806284
1646167858560202800,2.96420263671875,-3.6409833437263965,-1.109018349738419,-0.8109379780266434
1646167858570185000,2.97418505859375,-4.535463747510314,-1.3304063077181576,-0.8574838214285672
1646167858580166000,2.984165771484375,-5.145128261759877,-1.9031980121225118,-0.7021715330332517
1646167858590146800,2.994146728515625,-5.535003193137049,-2.1966174793511626,-0.5512100602585822
1646167858600128800,3.004128662109375,-5.81357755793333,-2.2725895429193974,0.017575513776950536
1646167858610109700,3.014109619140625,-6.035238779896497,-2.164419383318722,0.6844687030822039
1646167858620090600,3.024090576171875,-6.2951598821490995,-1.584566654486954,0.9842168618757278
1646167858630072800,3.03407275390625,-6.03293985530436,-0.7128615616127848,0.856116551663354
1646167858640053800,3.0440537109375,-5.136812268835306,-0.07596621834933757,0.6607670711077749
1646167858650035000,3.054034912109375,-3.952361076971888,0.16298779145926237,0.4641369396245107
1646167858660017000,3.064016845703125,-2.3821949960201976,0.5591556855008005,0.24595490154661237
1646167858669997800,3.073997802734375,-1.0384750332206487,0.9424538688361644,0.09735679690241814
1646167858679978800,3.083978759765625,-0.007200725159049033,1.2034618895426392,0.10383227652683853
1646167858689959700,3.093959716796875,0.5889081419467925,1.309273211057484,0.4060615115463733
1646167858699942000,3.10394189453125,0.7505939108967781,1.3209759238108991,0.7617007035836577
1646167858709922800,3.1139228515625,0.541838347736001,1.438967804723978,0.9640176119990647
1646167858719904000,3.123904052734375,0.31585224831104275,1.6164461860895156,1.0661286907564849
1646167858729885700,3.1338857421875,0.31093758826255796,1.767400717666745,1.206696049158275
1646167858739866600,3.14386669921875,0.4430015414088964,1.7783920672804117,1.3934601452633737
1646167858749847800,3.153847900390625,0.5793278281748294,1.794423164626956,1.597307624246925
1646167858759828700,3.163828857421875,0.7582914796620607,1.6886819857388733,1.7359015636838973
1646167858769811000,3.17381103515625,0.8508768243789673,1.525492826488614,1.800714519856125
1646167858779792000,3.1837919921875,0.8146633552253246,1.4697756154417991,1.7189301167473197
1646167858789772800,3.193772705078125,0.7605962494730949,1.4065192410618066,1.4667838862799107
1646167858799754800,3.203754638671875,0.8621125041425227,1.3773545213758944,1.045099127535522
1646167858809735700,3.213735595703125,1.0117448472052812,1.4144208079665899,0.5732875616298988
1646167858819716900,3.223716796875,1.305107031288743,1.5094149673908948,0.138890913089551
1646167858829698800,3.23369873046875,1.5873305662423371,1.5593249534636735,-0.24644275812879204
1646167858839679700,3.2436796875,1.988877815234661,1.5379127476006746,-0.513693984073773
1646167858849661000,3.253660888671875,2.5718957300990817,1.4382435821026562,-0.7383106217764318
1646167858859641900,3.263641845703125,3.119369453373551,1.2553911064833403,-0.9337645856197923
1646167858869623800,3.273623779296875,3.413693760487437,1.0981430277198552,-1.029670891452953
1646167858879604700,3.283604736328125,3.1505127796560526,0.811671187672019,-0.715584629901126
1646167858889585700,3.293585693359375,3.316851342847943,0.3856669582933187,-0.2900531326007098
1646167858899567900,3.30356787109375,3.7209956225961442,0.03316343393325805,-0.048184769715368746
1646167858909548800,3.313548828125,3.7702702333748337,-0.012747253370285034,0.048636897397041315
1646167858919530000,3.323530029296875,3.9365141040205955,0.10381751734912395,0.05825586267895996
1646167858929511700,3.33351171875,4.115589983710646,0.07381926944851874,0.14501726874904705
1646167858939492900,3.343492919921875,4.129602142450214,0.09310206206738948,0.08959641030030324
1646167858949473800,3.353473876953125,3.9029251381516454,0.3771329387038946,-0.2930062102526426
1646167858959454700,3.363454833984375,3.6398154689908027,0.5978600946873426,-0.601435468956083
1646167858969437000,3.37343701171875,3.3308003732234237,0.48034547589719295,-0.5989313771806657
1646167858979417900,3.38341796875,2.815235699906945,0.46451545408070083,-0.5806356959030032
1646167858989398800,3.393398681640625,2.32719207072258,0.5555903942346573,-0.5039925281401724
1646167858999380700,3.403380615234375,1.8385773636519909,0.44856122136265036,-0.41988465051986273
1646167859009361700,3.413361572265625,1.4573498491108416,0.17895546818077562,-0.2737003290191293
1646167859019342800,3.4233427734375,1.2793541658729315,-0.14881518146097658,-0.02201850119307637
1646167859029323800,3.43332373046875,1.1132096639484166,-0.3922510128587484,0.15737302031740547
1646167859039306000,3.443305908203125,0.8443617433965206,-0.5375213613197207,0.2562141557597555
1646167859049287000,3.453286865234375,0.4487251797527075,-0.6503697418645024,0.2807756011676043
1646167859059267800,3.463267822265625,-0.11491875707805156,-0.7152128009140492,0.2450900466118939
1646167859069249800,3.473249755859375,-0.716188367947936,-0.707902185639739,0.23762078844346105
1646167859079230700,3.483230712890625,-1.2592834377467632,-0.7553060341104865,0.2749824777841568
1646167859089212000,3.4932119140625,-1.7700252209514378,-0.792379334963858,0.21840178177580236
1646167859099193900,3.50319384765625,-2.185212872761488,-0.7378054487332701,0.06290136866355314
1646167859109174800,3.5131748046875,-2.5354168880075214,-0.8415306116238236,-0.15352021734677254
1646167859119156500,3.523156494140625,-2.965948239421844,-1.176544656522572,-0.2547257255665958
1646167859129137700,3.5331376953125,-3.3951322678804394,-1.5874085999146104,-0.17635763370729982
1646167859139119600,3.54311962890625,-3.7078321896404027,-1.8160647953316569,-0.03681074092704802
1646167859149100800,3.553100830078125,-3.7669980798363683,-1.7184180755719543,0.118291740642488
1646167859159081700,3.563081787109375,-3.7307232358843088,-1.554025678011775,0.2687614478448406
1646167859169063700,3.573063720703125,-3.609745324897766,-1.3970847655013203,0.46554918104261156
1646167859179044600,3.583044677734375,-3.6312218281686306,-1.237731531152129,0.623817031307891
1646167859189025500,3.593025634765625,-3.7985645999670026,-0.977662252600491,0.5957998011566699
1646167859199006700,3.6030068359375,-4.074308709773421,-0.6280524038553238,0.32583858560062945
1646167859208988700,3.61298876953125,-4.36713547180593,-0.006228080734610557,-0.2592921566992998
1646167859218969900,3.622969970703125,-4.142720567220449,0.41198885576874017,-0.8870980384476482
1646167859228950800,3.63295068359375,-3.5776229244500395,0.4145841329589486,-1.2629641720861196
1646167859238932700,3.6429326171875,-2.879502128112316,0.45138650791645046,-1.4584996036678552
1646167859248913700,3.65291357421875,-2.0633798062503335,0.4243924102678895,-1.5039029259711503
1646167859258894600,3.66289453125,-1.216284253975749,0.25914398040026426,-1.4635593712754547
1646167859268875500,3.67287548828125,-0.6293886208951472,0.11023439865410327,-1.3333401692129672
1646167859278857700,3.682857666015625,-0.4408639448583126,0.04932049574702978,-1.135160945124179
1646167859288838700,3.692838623046875,-0.5646528216123581,0.1941588825315237,-0.9388879199828952
1646167859298819800,3.70281982421875,-0.9154150552630423,0.6597308599278331,-0.7766363338436931
1646167859308801500,3.712801513671875,-1.1946744797140358,1.1203700570970774,-0.5917657598676159
1646167859318782700,3.72278271484375,-1.2948580244749783,1.4110294119626283,-0.3938922772597521
1646167859328763600,3.732763671875,-1.2117431034147739,1.5103566321551798,-0.12479819992706179
1646167859338744600,3.74274462890625,-0.9249971226006746,1.5473101060211658,0.17666911080926656
1646167859348726800,3.752726806640625,-0.5979419277518987,1.7317200402155517,0.32425131640918553
1646167859358707700,3.762707763671875,-0.032115386185050006,1.8354335126683115,0.34838732121288774
1646167859368689000,3.77268896484375,0.771250914478302,1.7994041679099202,0.3770742673192173
1646167859378670600,3.782670654296875,1.4806027144044638,1.7065712781727314,0.36891163832545276
1646167859388651500,3.792651611328125,2.310634319153428,1.529256562936306,0.42477950988933444
1646167859398632700,3.8026328125,3.1982156110733744,1.2765432001054287,0.6277248524013906
1646167859408613600,3.812613525390625,3.9254134488135572,1.026010688444972,0.830555190231651
1646167859418595800,3.822595947265625,4.507617124685645,0.7833610389888286,1.0225145899575203
1646167859428576800,3.83257666015625,4.9011681142270564,0.6133867496430874,1.174891847814247
1646167859438557700,3.8425576171875,5.0613598452270026,0.5911749178349971,1.2073677378747611
1646167859448539600,3.85253955078125,4.984277774590254,0.6861690772593021,1.0395891319423913
1646167859458520600,3.8625205078125,4.7536342047482725,0.7168862870842218,0.767097959517315
1646167859468501800,3.872501708984375,4.499880977475643,0.6722872669011354,0.5876554750045762
1646167859478482700,3.882482666015625,4.324630209031701,0.6417208637237548,0.4323175772439688
1646167859488464600,3.892464599609375,4.088118623939156,0.5916179854273795,0.2979726735536009
1646167859498445800,3.90244580078125,3.813281107583642,0.5897779105186463,0.1768868452131748
1646167859508426800,3.9124267578125,3.5592040551841255,0.6486719980359077,0.051213360288925466
1646167859518408700,3.92240869140625,3.3833617505878206,0.7476783157110214,-0.15303754839636385
1646167859528389600,3.9323896484375,3.167505415511131,0.7188152093201875,-0.3695226828958839
1646167859538370600,3.94237060546875,2.862581388449669,0.5402753362029791,-0.5999355492545292
1646167859548351700,3.952351806640625,2.5463719972640275,0.3523632391065359,-0.8020921890743077
1646167859558333700,3.962333740234375,2.220864031857252,0.22480770329535008,-0.9321909065622835
1646167859568315000,3.97231494140625,1.9795581982254982,-0.09268938961327075,-0.9604149113319813
1646167859578295800,3.9822958984375,1.7467992436647415,-0.6331196241170167,-0.7266027944564819
1646167859588277800,3.99227783203125,1.3246610420644283,-0.9713672441095114,-0.49451034098044033
1646167859598258700,4.0022587890625,0.6128308693259954,-1.0209630496665836,-0.5064109874587506
1646167859608239600,4.012239501953125,-0.2937830398440361,-1.1488690063506364,-0.5311238423023372
1646167859618220800,4.022220703125,-1.3363754452556371,-1.3672387855529784,-0.4452623259477317
1646167859628202800,4.03220263671875,-2.470118194144964,-1.693139841930568,-0.3252848241753876
1646167859638183700,4.04218359375,-3.643255964833498,-1.8097709558844566,-0.4112054503060877
1646167859648164900,4.052164794921875,-4.583341350972653,-1.7607526579543946,-0.6671480043165385
1646167859658146600,4.062146484375,-5.425829701712727,-1.8793617939829825,-0.9754702224489301
1646167859668127700,4.072127685546875,-6.18551643512547,-2.183796576222777,-1.0986316880196332
1646167859678108700,4.082108642578125,-6.135783559185266,-2.6542142400845883,-0.7582564083486795
1646167859688089600,4.092089599609375,-5.378965659207105,-2.8986121945127845,-0.34721268794294446
1646167859698071800,4.10207177734375,-4.8847114849448205,-2.7735227565541862,0.05084324833489954
1646167859708052700,4.112052734375,-4.711514141899347,-2.4879957961410284,0.5824264517772942
1646167859718033700,4.12203369140625,-5.049403449973464,-2.1364587787255642,1.0348857765570283
1646167859728015600,4.132015625,-5.850619294604659,-1.6162199761182068,1.2547042932629584
1646167859737996800,4.141996826171875,-6.531827534586191,-0.7842407444328069,1.1551791393455118
1646167859747977700,4.151977783203125,-6.227424901050329,-0.23934184008240697,1.086204898775369
1646167859757958700,4.161958740234375,-5.008237326848507,-0.148598031578958,1.0324199709653854
1646167859767940900,4.17194091796875,-3.5015286958068605,0.023384382718801496,0.9180097479313611
1646167859777921800,4.181921875,-2.2477397638231515,0.3361936100721359,0.7816277854554354
1646167859787902700,4.19190283203125,-1.3957131848871707,0.8015838011607527,0.6997714861541986
1646167859797883600,4.201883544921875,-1.0927513978093861,1.2689601976305245,0.6468709399633109
1646167859807865600,4.211865478515625,-0.9627619128495454,1.5483315580233932,0.7455157308496534
1646167859817846800,4.2218466796875,-0.8089823869794607,1.6434388224333523,0.8618393132243305
1646167859827827700,4.23182763671875,-0.5254156207233667,1.7181582555919885,0.9054055562935769
1646167859837810000,4.241809814453125,-0.1867477294921875,1.9573621485084294,0.8379428893301636
1646167859847790600,4.25179052734375,0.420344303920865,2.022504190504551,0.8253668278083205
1646167859857771500,4.261771484375,0.9587830723464489,1.9614532172143457,0.8816907725766301
1646167859867752700,4.271752685546875,1.3088099774599073,1.9601392120063303,0.9203798380635678
1646167859877734700,4.281734619140625,1.6509727250695228,1.9401812966048717,0.963421326606348
1646167859887715800,4.2917158203125,1.9053186575382948,1.8938789796352384,0.9818170341923832
1646167859897696800,4.30169677734375,2.1194798791348934,1.8904817384123802,0.9396777551863342
1646167859907678700,4.3116787109375,2.357059385719895,1.984377581205964,0.761305055329576
1646167859917659600,4.32165966796875,2.5984090584933757,2.0543279002666472,0.5111399887420237
1646167859927640600,4.331640625,2.83620776078701,2.05628078790009,0.30650632781684395
1646167859937621500,4.34162158203125,3.1923692231327294,1.9223913728922604,0.16511837374716995
1646167859947603700,4.351603759765625,3.56204950774312,1.7758049733966588,0.04205452333204448
1646167859957584600,4.361584716796875,3.893462897801399,1.685335013398528,-0.10539609177745878
1646167859967565800,4.37156591796875,4.140194848135113,1.6076105532050131,-0.24659429542869327
1646167859977547500,4.381547607421875,4.2380280303776265,1.5066256289333104,-0.355212089199014
1646167859987528700,4.39152880859375,4.254310472136735,1.4269354216247796,-0.43150344784948974
1646167859997509600,4.401509521484375,4.312130792942643,1.3976853617429732,-0.5096877075744792
1646167860007490600,4.411490478515625,4.276211338299513,1.2988421256750822,-0.5339383152011782
1646167860017472800,4.42147265625,4.146161063063144,1.1574071175932883,-0.41371250122357156
1646167860027453700,4.43145361328125,3.8785026445567605,1.0040601379215717,-0.22044980034679174
1646167860037435000,4.441434814453125,3.5583851400166746,0.8867156150013208,-0.08017561620529741
1646167860047415800,4.451415771484375,3.2162767529428002,0.8293938913673162,0.09263510214276612
1646167860057397500,4.4613974609375,2.78464065515697,0.8059417041093111,0.08719839098155498
1646167860067378700,4.471378662109375,2.178455215194821,0.8011158913880586,-0.07610431164577602
1646167860077359600,4.481359619140625,1.3980980341970919,0.8013251502245664,-0.2514479825375602
1646167860087341800,4.491341796875,0.6995540440112352,0.6299713892191648,-0.25150208734497426
1646167860097322800,4.50132275390625,0.28072189821898935,0.1350467683494091,-0.030074820268154143
1646167860107303700,4.5113037109375,-0.10468436331152915,-0.22593466149866578,0.051745202143304046
1646167860117284900,4.521284912109375,-0.46621056756079193,-0.37942309546768666,0.010573160734213887
1646167860127266000,4.53126611328125,-0.7091168221265077,-0.7080547458529471,0.07420841489657759
1646167860137246700,4.541246826171875,-0.8205196800380945,-1.1245774456590414,0.1901185941647738
1646167860147227600,4.5512275390625,-0.88000296562016,-1.5308610755234955,0.3339081294834614
1646167860157208800,4.561208740234375,-0.9348930781930684,-1.874841686210036,0.48973746402282264
1646167860167190800,4.571190673828125,-0.9733587101876735,-2.152727484220266,0.5776167134080081
1646167860177172000,4.581171875,-1.1047335120260715,-2.341083817952871,0.5729010465303436
1646167860187153000,4.59115283203125,-1.3606407024621963,-2.3524784876704214,0.5234967814899981
1646167860197134800,4.601134765625,-1.8730454504430294,-2.2128560819685457,0.3969738035969436
1646167860207115800,4.61111572265625,-2.8130940117031336,-1.7120926719427108,0.04390811530947685
1646167860217096700,4.6210966796875,-3.6401439702928062,-1.304325525522232,-0.2994238404762931
1646167860227078000,4.631077880859375,-4.164461858907342,-1.4198118533551691,-0.5415453196061775
1646167860237059800,4.641059814453125,-4.230921413242816,-1.8583494010925292,-0.6388514457672834
1646167860247041000,4.651041015625,-3.949436713957786,-1.980153533770144,-0.5969484962677583
1646167860257022000,4.66102197265625,-3.370775825259089,-1.7814841880768537,-0.5532226787226274
1646167860267003000,4.6710029296875,-3.0491824029475447,-1.2662573684126137,-0.7707561166986823
1646167860276984800,4.68098486328125,-2.885471850171685,-0.7661769722148776,-0.7538174029879271
1646167860286965800,4.6909658203125,-3.1860657390743494,-0.1540972135171294,-0.6708708242319524
1646167860296946700,4.70094677734375,-3.5476433812499044,0.3422685460716486,-0.6661476681675762
1646167860306929000,4.710928955078125,-3.690508714395761,0.7156500232875347,-0.7506869960077106
1646167860316909800,4.720909912109375,-3.239062585246563,1.0116922402352093,-0.7262345456659793
1646167860326891000,4.73089111328125,-2.2371248463064433,0.9593278467476367,-0.6329964361287653
1646167860336872000,4.740871826171875,-1.154742866820097,0.6611679069936275,-0.46837446759641166
1646167860346854000,4.75085400390625,-0.4466963042736053,0.4829261400401592,-0.21493863570988178
1646167860356834800,4.760834716796875,-0.0686760613411665,0.38532559750974177,0.07916260323785244
1646167860366815700,4.770815673828125,0.03855331027805805,0.28979309342503545,0.3637964872688055
1646167860376797000,4.780796875,0.057529813426733016,0.24880641852021215,0.599936206841655
1646167860386779000,4.79077880859375,0.0851017109632492,0.28061609975695606,0.6988158659297973
1646167860396760000,4.800760009765625,0.11480535983145236,0.5040519301772117,0.5953909280948341
1646167860406741000,4.810740966796875,0.07533142757713794,0.7578688703358173,0.42744226282518355
1646167860416722700,4.82072265625,-0.05473579879403114,0.9734516491681336,0.3028362610019743
1646167860426704000,4.830703857421875,-0.16008768610358237,1.0984446410149336,0.280845159272477
1646167860436684800,4.840684814453125,-0.18953472986221312,1.1105652869194744,0.34173557170610874
1646167860446665700,4.850665771484375,-0.2676759541630745,1.3224953884631394,0.2530206386817619
1646167860456648000,4.86064794921875,-0.09085632896721363,1.6069237399846314,0.08375402268134056
1646167860466628900,4.87062890625,0.26118659214377404,1.85086927447021,-0.12271843451093882
1646167860476610000,4.880610107421875,0.7679203087508678,2.0112813702225685,-0.27801333338003603
1646167860486591000,4.890591064453125,1.554642933127284,1.9491116220355034,-0.2747329234698787
1646167860496573000,4.900572998046875,2.3365490971326826,1.7906857316643,-0.1473212896414101
1646167860506553900,4.910553955078125,2.9382582684636116,1.5909849970966576,0.03688698450103402
1646167860516534800,4.92053466796875,3.4469793594956397,1.4430606269955635,0.17284794508591295
1646167860526517000,4.93051708984375,3.7854444216310976,1.412777716934681,0.11751958722621202
1646167860536498000,4.940497802734375,4.092497861936688,1.3346639651626349,0.039573081779852505
1646167860546479000,4.95047900390625,4.363913002628088,1.272465575402975,0.004203735300153493
1646167860556459800,4.960459716796875,4.532889513108134,1.2663532300025224,0.01904072749130428
1646167860566441700,4.970441650390625,4.5478766543596985,1.2384937476962805,0.05105915610790252
1646167860576423000,4.9804228515625,4.354951113015413,1.1920587442576884,0.12373378556594251
1646167860586403800,4.99040380859375,3.90021178753972,1.206905015733838,0.1531945655889809
1646167860596384800,5.000384765625,3.3195039031833407,1.256239832267165,0.14036825563311575
1646167860606367000,5.010366943359375,2.74282688177824,1.1740899568468333,0.1472476398833096
1646167860616348000,5.020347900390625,2.161088485330343,0.9933160410672426,0.03384308676049113
1646167860626328800,5.030328857421875,1.6421178029626606,0.7745809356838464,-0.12821312293708323
1646167860636310800,5.040310791015625,1.4277800557553768,0.5004764097779989,-0.2775134575664997
1646167860646292000,5.0502919921875,1.338054192122817,0.10886837099790572,-0.4454802064821124
1646167860656273000,5.06027294921875,1.3767746756613253,-0.19642682746350765,-0.6424974741194397
1646167860666253800,5.07025390625,1.401527424123883,-0.5091238266140222,-0.7046122772488743
1646167860676236000,5.080236083984375,1.4482260469347237,-0.9765443544864654,-0.7159813010685145
1646167860686216700,5.090216796875,1.4348743979305028,-1.4212263963282108,-0.6067635321110486
1646167860696198000,5.100197998046875,1.1558388453632593,-1.8501222554951906,-0.4039305639322847
1646167860706178800,5.1101787109375,0.6268669934630393,-2.246853044116497,-0.13901932524219154
1646167860716160800,5.120160888671875,0.08976619564294815,-2.600426243534684,0.19926153943277894
1646167860726142000,5.130141845703125,-0.3886883519411087,-2.8495360289156437,0.4806967735528946
1646167860736123000,5.140122802734375,-0.8742676368385552,-2.9772014548420906,0.6309866306763142
1646167860746104800,5.150104736328125,-1.6130676495671272,-2.847483772560954,0.5993973141919822
1646167860756085800,5.160085693359375,-2.916772412842512,-2.5127292553812266,0.26162366838678713
1646167860766066700,5.170066650390625,-4.3623488220512865,-2.4031319855868816,-0.05001242353394627
1646167860776047900,5.1800478515625,-5.588652365738153,-2.636898655885458,-0.25382227392084894
1646167860786029800,5.19002978515625,-6.100649117439985,-3.0898861692577597,-0.17450126525089144
1646167860796011000,5.200010986328125,-5.7538955349087715,-3.530532671973109,0.11432649027332663
1646167860805992000,5.209991943359375,-4.927501994401216,-3.57098334030509,0.2680575008265674
1646167860815972900,5.219972900390625,-4.133182339024543,-3.1838667677253483,0.3700951490215957
1646167860825954800,5.229954833984375,-3.6706682878941295,-2.7799299932479857,0.535811853988096
1646167860835935700,5.239935791015625,-3.758497962516546,-2.0763550231575967,0.545615601252392
1646167860845917000,5.2499169921875,-4.317162941890954,-1.0927923143416642,0.31150749710500236
1646167860855897900,5.25989794921875,-4.728458262437582,-0.3371533950150013,0.27556860710904
1646167860865879800,5.2698798828125,-4.666417693588137,0.16525135247707365,0.3157072868824005
1646167860875861000,5.279861083984375,-3.851140005856752,0.44283086101710795,0.1563802098877728
1646167860885842000,5.289842041015625,-2.527104986736178,0.720697954326868,-0.10431626065149903
1646167860895824000,5.299823974609375,-1.2476713258862495,1.1328618744015693,-0.34617022968530653
1646167860905804800,5.3098046875,-0.198472069555521,1.4223890103667973,-0.4852930153019726
1646167860915785700,5.31978564453125,0.41708091821074483,1.4990087241888046,-0.5644596371278167
1646167860925767000,5.329766845703125,0.6001087503969669,1.5766782393246888,-0.35555998932123184
1646167860935748900,5.339748779296875,0.4845633858531713,1.8106570910692215,0.031226693717017768
1646167860945730000,5.34972998046875,0.43848260267972944,2.0460212596923113,0.35176271593011915
1646167860955711000,5.3597109375,0.5731453401476144,2.1581226212620734,0.5443198623534292
1646167860965692000,5.36969189453125,0.7920926269769668,2.2107716769099235,0.6982788364436477
1646167860975673900,5.379673828125,1.0753788227260113,2.226787576687336,0.7695198529019951
1646167860985654800,5.38965478515625,1.2240467046707868,2.3477315854042766,0.8037829917054623
1646167860995636000,5.399635986328125,1.2627297788083554,2.4858108533173797,0.8403352643594145
1646167861005617000,5.409616943359375,1.3293214350908993,2.5717729805022476,0.8186029596965759
1646167861015598800,5.419598876953125,1.4730384166300297,2.6031881094634532,0.7590180403709411
1646167861025580000,5.429580078125,1.5693343063026666,2.5290035138338802,0.6621619595322757
1646167861035561000,5.43956103515625,1.6654396418392656,2.470362524294853,0.4883236151695251
1646167861045542000,5.4495419921875,1.783292698803544,2.441073301446438,0.2581472244478762
1646167861055523800,5.45952392578125,2.109099354895949,2.423584406507015,0.08976159253306687
1646167861065504800,5.4695048828125,2.5596435667693616,2.34436883097291,-0.01641863535940647
1646167861075486000,5.47948583984375,2.9864854160159826,2.265083112812042,-0.053979646664485334
1646167861085468000,5.489468017578125,3.371699369844794,2.0644711086183785,-0.17015103415213526
1646167861095449000,5.499448974609375,3.659971537312865,1.8419447942584752,-0.2959007626503706
1646167861105429800,5.5094296875,3.7788223731428383,1.6483786169230936,-0.38992151046525686
1646167861115410700,5.51941064453125,3.84737685393095,1.5270657748937606,-0.43205969349276274
1646167861125393200,5.52939306640625,3.893317936372757,1.3954437202960253,-0.3477496443638578
1646167861135374300,5.539374267578125,3.8782524691879745,1.1877093168765305,-0.21711974260862915
1646167861145355300,5.549355224609375,3.7840824856281277,0.9755354697048664,-0.1759605606811121
1646167861155336200,5.559336181640625,3.6537224137902258,0.8319926756888627,-0.18043138595223426
1646167861165318100,5.569318115234375,3.4044314266234634,0.7356932788848877,-0.18348865463100372
1646167861175299000,5.579299072265625,3.066472560444474,0.6503431461185216,-0.14613489286843687
1646167861185280300,5.5892802734375,2.6338094576984643,0.5066588978052139,-0.10621803915221244
1646167861195261200,5.59926123046875,2.1409172194391486,0.26607085705399514,-0.11601853501349686
1646167861205243400,5.609243408203125,1.6986971837967633,-0.06153086576163769,-0.10003354183100163
1646167861215224300,5.619224365234375,1.3553788364112376,-0.351122883656621,-0.034078722147271034
1646167861225205200,5.629205322265625,0.96965401045084,-0.5836106200605631,0.04312854577172547
1646167861235187200,5.639187255859375,0.5960393090009689,-0.8420552200198173,0.15658197953756897
1646167861245168000,5.649168212890625,0.2147942588031292,-1.1601742442190646,0.3005356924420223
1646167861255149300,5.6591494140625,-0.17797756305932996,-1.436522749659419,0.45867706678342074
1646167861265130200,5.669130126953125,-0.5526712919175625,-1.6797136663854122,0.5190867830280215
1646167861275112200,5.6791123046875,-0.9903671281337737,-1.9456179347008467,0.5095789499703794
1646167861285093400,5.68909326171875,-1.4736305373042822,-2.0833727929651737,0.5369646042197942
1646167861295074300,5.69907421875,-1.8871464565098284,-2.063304402926564,0.5256729930179194
1646167861305055200,5.70905517578125,-2.300346149373054,-1.9703239214122295,0.4561540876444429
1646167861315037200,5.719037109375,-2.764806073874235,-1.9965835673063992,0.39113263982068747
1646167861325018000,5.72901806640625,-3.31782690988183,-2.2881951083302496,0.26485527071915566
1646167861334999300,5.738999267578125,-3.6411043397575615,-2.69965234144032,0.10445318490415811
1646167861344980200,5.748980224609375,-3.641875324130058,-3.1525685431420802,0.09791943575385957
1646167861354962400,5.75896240234375,-3.4731413902342316,-3.3793910933911797,0.24198647283967584
1646167861364943400,5.768943359375,-3.605527999463677,-2.964551232105493,0.30886034359708425
1646167861374924300,5.77892431640625,-4.063336064860224,-2.161139338734746,0.3204423891128972
1646167861384905200,5.7889052734375,-4.981733350804448,-1.1886100651085376,0.24004553137235343
1646167861394887200,5.79888720703125,-6.015383740347623,-0.5505132371008395,0.14835713549517093
1646167861404868400,5.808868408203125,-6.629426908072829,-0.1746563096821308,0.09646116323694587
1646167861414849300,5.818849365234375,-6.307311507713794,0.376166139498353,-0.07813563481029123
1646167861424831200,5.828831298828125,-5.025404150226712,0.5408393998265266,-0.23074699368383733
1646167861434812400,5.8388125,-3.3737539642870424,0.309980725929141,-0.3582704903889447
1646167861444793300,5.84879345703125,-1.8366461033284662,0.32143384783566,-0.5691379676697775
1646167861454774000,5.85877392578125,-0.5731324806660414,0.2667559167087078,-0.7908207804102451
1646167861464756200,5.868756103515625,0.27044308078885076,0.16405775877833365,-0.8934799945697188
1646167861474737200,5.878737060546875,0.7815162879049777,0.09523907409608363,-0.8000210088234394
1646167861484718300,5.88871826171875,1.0303834967017174,0.09731354228258132,-0.7213583179317414
1646167861494699300,5.89869921875,1.0342565387427807,0.3583434825599193,-0.7620725325707346
1646167861504681500,5.908681396484375,0.8243921375572681,0.7214210079044103,-0.847436693862453
1646167861514662100,5.918662109375,0.5798375312626362,0.9977420408159494,-0.7726695491045713
1646167861524643000,5.92864306640625,0.32033670024871824,1.3332839089810848,-0.6799616739865392
1646167861534624300,5.938624267578125,0.1245417409479618,1.7081307825744152,-0.6922049964226782
1646167861544606200,5.948606201171875,0.07869184392094612,1.988680246835947,-0.7472717807367444
1646167861554587400,5.95858740234375,0.16475450887084006,2.230612103411555,-0.7877312899623066
1646167861564568300,5.968568359375,0.5055477216929197,2.3031647139251232,-0.6474478630684316
1646167861574549200,5.97854931640625,1.1148322967141866,2.122988764038682,-0.26574215482259167
1646167861584531200,5.98853125,1.6654256133139131,1.968480339372158,-0.035106202031485734
1646167861594512100,5.99851220703125,2.1573077977478503,2.0276859770566222,0.04323580553848296
1646167861604493000,6.0084931640625,2.7288983096688986,2.124098186585307,0.14495419518388808
1646167861614474200,6.01847412109375,3.1635598927557464,2.2258149322628973,0.13135785070359707
1646167861624456200,6.028456298828125,3.5764702472835777,2.3649556919276713,0.06663180562984197
1646167861634437400,6.038437255859375,3.9943841091871257,2.272916290655732,0.04909008452463895
1646167861644418300,6.048418212890625,4.3330473242431875,2.014997175875306,0.039538594988361
1646167861654400300,6.058400146484375,4.554390566298365,1.7527677966803312,0.09593509353622794
1646167861664381200,6.068381103515625,4.644775186100602,1.5105284815907478,0.1485012566735968
1646167861674362000,6.078362060546875,4.668886714050173,1.2369774979144335,0.1869813921175897
1646167861684343300,6.08834326171875,4.583181191974878,0.976131097510457,0.16447810308225452
1646167861694325200,6.0983251953125,4.343606127658486,0.7641460509091615,0.025270086867548523
1646167861704306400,6.108306396484375,3.908224413603544,0.6382289299547672,-0.26716416871603577
1646167861714287400,6.118287353515625,3.336445101112127,0.5602449420422315,-0.5643565420795231
1646167861724268300,6.128268310546875,2.7289702058613297,0.3479834165871143,-0.808250200247392
1646167861734250200,6.138250244140625,2.0981512599021195,0.1016886886268854,-1.0373727710671723
1646167861744231200,6.148231201171875,1.5593512569487094,-0.19263503396511078,-1.1215249262206255
1646167861754212000,6.158212158203125,0.9831944600254297,-0.4457090468019247,-1.1292732022598384
1646167861764193300,6.168193359375,0.4715069204032421,-0.7099269694656133,-1.0656904454696923
1646167861774175200,6.17817529296875,0.14902970099449156,-0.9661205756276845,-0.9433047865770756
1646167861784156400,6.188156494140625,0.08390987083017826,-1.114469893142581,-0.7063727841153741
1646167861794137300,6.198137451171875,-0.09748130006492137,-1.4480284785360098,-0.3926956148210913
1646167861804118300,6.2081181640625,-0.23790859240889548,-1.8303712608426808,-0.1461480080783367
1646167861814100200,6.218100341796875,-0.3510381279826164,-2.080732507589459,0.013063479712605476
1646167861824081200,6.2280810546875,-0.5982482172220945,-2.2074188593506814,0.14213256189189852
1646167861834062300,6.238062255859375,-1.01689448505342,-2.2439859642475843,0.29611688961908217
1646167861844043300,6.248043212890625,-1.6211737991333006,-2.189910675188899,0.41745698498152195
1646167861854025500,6.258025390625,-2.4233722250610588,-2.0481354753673076,0.46439599241949614
1646167861864006400,6.26800634765625,-3.3226515535593033,-2.031497059777379,0.4174026975110173
1646167861873987000,6.277987060546875,-4.006675435483455,-2.245790383321047,0.331477833596617
1646167861883968300,6.28796826171875,-4.196198474907875,-2.5035008237868546,0.4615867071524262
1646167861893950200,6.2979501953125,-3.997403749269247,-2.689683320611715,0.850267094982788
1646167861903931100,6.30793115234375,-3.6456250320523975,-2.6142063470840453,1.1923162261500955
1646167861913912300,6.317912353515625,-3.509094747146964,-2.217107894194126,1.342996032439172
1646167861923894300,6.327894287109375,-3.8399551794975992,-1.5416910970956086,1.2577356237828732
1646167861933875200,6.337875244140625,-4.5260985377937555,-0.9322223976790904,1.0297985364206135
1646167861943856000,6.347856201171875,-5.106184490859508,-0.4166115471333265,0.7950710582658648
1646167861953837000,6.357837158203125,-5.030545604768395,-0.05580430480837822,0.6619048429660499
1646167861963819300,6.3678193359375,-4.338210990616679,0.05723638343811035,0.5514353934470564
1646167861973800200,6.37780029296875,-3.4148715720951555,0.230753459957242,0.4569507179148495
1646167861983781400,6.387781494140625,-2.568154790005088,0.49707156977057454,0.4301575131332501
1646167861993762300,6.39776220703125,-2.006006060168147,0.7573579982042312,0.5990657076174393
1646167862003744300,6.407744140625,-1.725773991292715,0.8649293151289225,0.906807458980754
1646167862013725200,6.41772509765625,-1.4857552748620508,0.9987234530687331,1.2921531494304537
1646167862023706000,6.4277060546875,-1.1746475907295941,1.199793722423911,1.5983281994663179
1646167862033687300,6.437687255859375,-0.712038847053051,1.2916092518121003,1.7750687680765986
1646167862043669200,6.447669189453125,-0.1971954737484455,1.4255734856218099,1.8404758907496928
1646167862053650200,6.457650146484375,0.2729962724030018,1.5108932232499122,1.8425750549860298
1646167862063631400,6.46763134765625,0.5636053583860396,1.5996926196873187,1.7122534154623745
1646167862073612300,6.4776123046875,0.6932131505519151,1.7848598019897937,1.4973171178400515
1646167862083594200,6.48759423828125,0.8110457492500543,1.9195465048551559,1.2536945316985248
1646167862093575200,6.4975751953125,0.9227548966318369,1.917718704906106,0.9675831224609166
1646167862103556000,6.50755615234375,1.0672112983614206,1.7820365612626075,0.69749360435009
1646167862113537300,6.517537353515625,1.279690265959501,1.877484894195199,0.40682438567765056
1646167862123519000,6.52751904296875,1.7528303405225276,2.084753433668613,0.07292275900021195
1646167862133500000,6.5375,2.431419337916374,2.108928089982271,-0.21424312772639095
1646167862143480800,6.547480712890625,3.217351104176044,2.005498695167899,-0.5323472831500694
1646167862153462000,6.5574619140625,3.9744706174492834,1.8283429698854683,-0.8503800538379699
1646167862163443700,6.567443603515625,4.676353981190919,1.584574545532465,-1.0477689312666654
1646167862173424600,6.577424560546875,5.232765044158697,1.2915344330102205,-1.070931926319748
1646167862183405800,6.58740576171875,5.53507625837326,1.1569055978119374,-0.9322695978216826
1646167862193386800,6.59738671875,5.41989505096674,1.1370394523471594,-0.744164973827824
1646167862203369000,6.607368896484375,4.960605807101726,1.2102519880741833,-0.5703822321098297
1646167862213350000,6.617349853515625,4.558394541242718,1.0535855085909367,-0.12018442252129316
1646167862223330800,6.627330810546875,4.225952392658591,0.7930477357447147,0.27666706987023354
1646167862233312000,6.63731201171875,3.6560675156116482,0.7838163815408945,0.25348390881195665
1646167862243293700,6.647293701171875,2.9311855535984037,1.002367947050929,-0.0660750119972974
1646167862253275000,6.65727490234375,2.3796458960592743,1.1050058992266654,-0.2873085831329226
1646167862263255800,6.667255859375,2.11327576379776,0.9203197784394025,-0.41674131099283696
1646167862273236700,6.67723681640625,1.9343185420513151,0.676461922237277,-0.5207211062315851
1646167862283219000,6.687218994140625,1.726262651592493,0.454531820204854,-0.5167155238520353
1646167862293200000,6.697199951171875,1.2687854255855082,0.0951408744186163,-0.35535350696370005
1646167862303181000,6.70718115234375,0.6697030956268311,-0.2496364396035671,-0.18162286075912415
1646167862313162800,6.717162841796875,0.304482713034749,-0.39030689305365085,-0.1543218891184777
1646167862323143700,6.727143798828125,0.0941162075459957,-0.44374213064312934,-0.2704669000558555
1646167862333124900,6.737124755859375,-0.12498013236522673,-0.5463941113442182,-0.4330239719476551
1646167862343105800,6.747105712890625,-0.2923369326889515,-0.7904121265441179,-0.48917723632417615
1646167862353087000,6.7570869140625,-0.27570202423036094,-1.0515174701452255,-0.5172152900677174
1646167862363069000,6.76706884765625,-0.14347849660813808,-1.2794558726817369,-0.5350569439675659
1646167862373049900,6.7770498046875,-0.1986024179369211,-1.4225503384083509,-0.5966160129103809
1646167862383030800,6.78703076171875,-0.4856944357097149,-1.4571674782812594,-0.6553966301158071
1646167862393011700,6.79701171875,-1.026212348496914,-1.5087573802649974,-0.659948521266505
1646167862402994000,6.806993896484375,-1.672265103945136,-1.6143687952935695,-0.6525414598803967
1646167862412974800,6.816974853515625,-2.4672709880203008,-1.7661311361223457,-0.6032255672432482
1646167862422955800,6.826955810546875,-3.426211296755075,-2.0336767419040203,-0.5499781073108315
1646167862432937000,6.83693701171875,-4.311061702406406,-2.2938205469965935,-0.5112206527628004
1646167862442918700,6.846918701171875,-4.790032967340946,-2.296870582216978,-0.6496281297169625
1646167862452899800,6.85689990234375,-4.736978253501653,-1.8826514831781387,-1.0694099774494767
1646167862462880800,6.866880859375,-4.474294116276503,-1.1417781713068484,-1.5721886728204786
1646167862472862700,6.87686279296875,-4.320289549478888,-0.29787995376884935,-1.9869414403446017
1646167862482844000,6.886843994140625,-4.396971807143092,0.2944756982833147,-2.152574924007058
1646167862492824800,6.896824951171875,-4.399283006694913,0.3898591492861509,-1.900687198345363
1646167862502806000,6.906805908203125,-4.049261362278461,0.30239596988856793,-1.4246375199459493
1646167862512787700,6.91678759765625,-3.525978661930561,0.5372089343696832,-1.111878999866545
1646167862522768600,6.9267685546875,-2.608012753140926,0.563019082930684,-0.7171417231500148
1646167862532749800,6.936749755859375,-1.6969138075113295,0.37721769437789915,-0.32640443932246416
1646167862542730800,6.946730712890625,-1.1574655697822571,0.28209318657219407,0.0035668621687218543
1646167862552713000,6.956712890625,-0.7054010164737701,0.36773265767395497,0.17015392022896558
1646167862562694000,6.96669384765625,-0.33420915825664993,0.46676820144355297,0.21733758661039174
1646167862572674800,6.9766748046875,-0.05702420199215412,0.5352332503825425,0.1969509974680841
1646167862582656000,6.986656005859375,0.16161095014810561,0.5474655399680137,0.1520901114784181
1646167862592637700,6.9966376953125,0.40998423794806,0.4240174394756555,0.32687779245525594
1646167862602619000,7.006618896484375,0.4405260912060737,0.355270650985837,0.6776875915747136
1646167862612599800,7.016599853515625,0.04203822978436947,0.715317430332303,0.9472396418079734
1646167862622580700,7.026580810546875,-0.3475117074221372,1.1218313618212938,1.0291888070244342
1646167862632563000,7.03656298828125,-0.4831646249711513,1.3063269284725187,1.0590775301359594
1646167862642543900,7.0465439453125,-0.31530104416906835,1.235005321058631,1.1737830097895114
1646167862652525000,7.056525146484375,0.01666179646551609,1.2388514750927686,1.1932250846233219
1646167862662506000,7.066506103515625,0.4221633360415697,1.4921137039780616,1.0319206431411205
1646167862672487700,7.07648779296875,1.2181091313153505,1.480820156547427,0.9985398401301353
1646167862682468900,7.08646875,2.1480361115336417,1.396979259300232,1.0439331524960695
1646167862692449800,7.09644970703125,2.9171687186837194,1.3270166652798652,1.1214954809304327
1646167862702430700,7.1064306640625,3.508646418857574,1.2434715361088513,1.1392148236248643
1646167862712413000,7.116412841796875,3.960577701175213,1.1555822402536868,1.0515333983667194
1646167862722393900,7.126393798828125,4.243866235011816,1.0741881516367195,0.9852874137166887
1646167862732374800,7.136374755859375,4.390945970982313,0.988831589129567,0.8989411825850605
1646167862742355700,7.146355712890625,4.374668789920211,0.989051953881979,0.7517184579472989
1646167862752338000,7.156337890625,4.174419189298153,1.1396668782413004,0.506044126907736
1646167862762318800,7.16631884765625,3.802476804974675,1.2051467738896608,0.35070370839647946
1646167862772299800,7.1762998046875,3.3795991831839083,1.135055585053563,0.33576676296219227
1646167862782281000,7.186281005859375,3.0012241354644296,0.9733119484364986,0.38675694548711176
1646167862792263000,7.196262939453125,2.650893278968334,0.8196820601701736,0.3954593073807657
1646167862802243800,7.206243896484375,2.351651389196515,0.7270891166687011,0.3893636208541691
1646167862812224800,7.216224853515625,2.1030074677616355,0.6828279501378536,0.285587294031959
1646167862822205700,7.226205810546875,1.8274042277306317,0.5498620797157288,0.13070055583864448
1646167862832188000,7.23618798828125,1.5641045889556406,0.31277649412751196,-0.052789560097083445
1646167862842168800,7.2461689453125,1.3403764975905417,0.10178455021679401,-0.25458916664011777
1646167862852149800,7.256149658203125,1.1495458826988936,-0.07547054378688335,-0.414890641624853
1646167862862131000,7.266130859375,0.9261328486323356,-0.22656302253007887,-0.5587247467376292
1646167862872112600,7.276112548828125,0.5884405244350434,-0.49726329295039173,-0.7037557334847748
1646167862882093800,7.28609375,0.22987667712271212,-0.9892881007254123,-0.9031015171349048
1646167862892074800,7.29607470703125,-0.19397884978950022,-1.5051614015996455,-1.118966693105176
1646167862902055700,7.3060556640625,-0.8105009748488664,-1.831297728037834,-1.288393943027407
1646167862912038000,7.316037841796875,-1.6145061579376458,-1.9133160860329865,-1.2746423349201679
1646167862922018800,7.326018798828125,-2.417045360127091,-1.8118594525963068,-1.0535174117907882
1646167862932000000,7.336,-3.2687235640168186,-1.7147732893288135,-0.7825281683612615
1646167862941981000,7.34598095703125,-4.08900768173337,-1.8131056532651184,-0.5244984328132123
1646167862951963000,7.355962890625,-4.445923177316785,-2.2633879993319512,-0.439193965819478
1646167862961943800,7.36594384765625,-4.135096063691377,-2.7331366778910158,-0.4566966700885445
1646167862971924700,7.3759248046875,-3.5324767917782065,-2.862394633705914,-0.6076461601644754
1646167862981906000,7.385906005859375,-2.9842618947476147,-2.782441683807969,-0.7053085158847272
1646167862991888000,7.395887939453125,-2.8757389761865135,-2.553181677278876,-0.7591317298784852
1646167863001868800,7.405868896484375,-3.3163433933258055,-2.1452052720218897,-0.7545431599792093
1646167863011850000,7.41585009765625,-4.131086828050017,-1.5932400825470685,-0.5286459078814834
1646167863021831000,7.425830810546875,-4.984897367793321,-1.039449723471701,-0.2518249626237899
1646167863031812900,7.435812744140625,-5.421389088916778,-0.4895131172150373,0.013592691218480467
1646167863041793800,7.445793701171875,-5.182137265205383,-0.18287059579789638,0.3535245379708707
1646167863051774700,7.455774658203125,-4.5375873155355455,-0.03727934481948614,0.6333623468317091
1646167863061756000,7.465755859375,-3.6288545145153996,0.24019991821646688,0.8522794577185064
1646167863071737900,7.47573779296875,-2.6357319501936436,0.6009633213996887,1.0184974632706492
1646167863081719000,7.485718994140625,-1.7485440415054558,0.7796697832554579,1.079977402562648
1646167863091699700,7.49569970703125,-1.024102808997035,0.9106061936765909,1.1628702053047717
1646167863101680600,7.5056806640625,-0.4555038801074028,1.0295990683257579,1.2740040370166301
1646167863111662800,7.515662841796875,0.003183306211233139,1.1029203251242636,1.2745324448049067
1646167863121644300,7.525644287109375,0.3677840956002474,1.219430150786042,1.221309534791857
1646167863131625500,7.53562548828125,0.7119225271970033,1.2509586769938468,1.2282248671382665
1646167863141606400,7.5456064453125,0.9359773662984371,1.353363989457488,1.1983690964482725
1646167863151588400,7.55558837890625,0.9348433938324451,1.536595235261321,1.1705799759645015
1646167863161569300,7.5655693359375,0.8144728010892868,1.749996578401327,1.1289142327543347
1646167863171550200,7.57555029296875,0.6875806976228952,2.0780261712402104,1.028556573535502
1646167863181531400,7.585531494140625,0.7119114212810993,2.3855706099331377,0.8862901561308651
1646167863191512300,7.59551220703125,1.0643541553646325,2.4665046798229215,0.6549022707276045
1646167863201494300,7.605494384765625,1.6271329997986554,2.600450793454051,0.4162009205058217
1646167863211475500,7.615475341796875,2.255188326263428,2.4981460187554356,0.13484532749317585
1646167863221456400,7.625456298828125,2.8786960724264383,2.2631483453571795,-0.042087055628467346
1646167863231438300,7.635438232421875,3.421591820260882,2.1480793661534783,-0.1297331721112132
1646167863241419300,7.645419189453125,3.8799469981461763,2.1039035398185253,-0.2872482312478125
1646167863251400200,7.655400146484375,4.210391835433245,2.102484905192256,-0.48847317970804865
1646167863261381400,7.66538134765625,4.4142754086434834,1.9902853439450263,-0.657477454977855
1646167863271363300,7.67536328125,4.529069078037143,1.836020080384612,-0.7543599854320288
1646167863281344500,7.685344482421875,4.487535875165462,1.7086334713995455,-0.8693871713206172
1646167863291325400,7.695325439453125,4.3715918666929,1.5814853473454713,-1.0927858115356415
1646167863301306400,7.705306396484375,4.356376761904358,1.468500188678503,-1.2890377938888966
1646167863311287300,7.715287353515625,4.3778579413503405,1.2364490901261567,-1.3463622940018771
1646167863321269200,7.725269287109375,4.285659550124406,0.934489173567295,-1.2947864205434918
1646167863331250400,7.73525048828125,4.051199636864662,0.6644996817648411,-1.1516439509566874
1646167863341231400,7.7452314453125,3.6213738033711906,0.6033505087971687,-1.037633687025681
1646167863351212300,7.75521240234375,3.0136364577919244,0.5920505316257476,-0.9422421988468617
1646167863361194500,7.765194580078125,2.2636364211350677,0.3638227907538414,-0.7561560750685632
1646167863371175200,7.775175048828125,1.404489196538925,0.06105272685587406,-0.5474735771439969
1646167863381156400,7.78515625,0.5307306782662868,-0.1950216368407011,-0.3286407104745507
1646167863391137300,7.79513720703125,-0.14447627547383307,-0.36856735493242737,-0.05801547805182635
1646167863401119200,7.805119140625,-0.5561152948915958,-0.6042910045176744,0.21336955976225436
1646167863411100400,7.815100341796875,-0.8733627969533204,-0.8201110992372036,0.42619061879627407
1646167863421081300,7.825081298828125,-1.1471540191262959,-1.041926634979248,0.5908675323862582
1646167863431062300,7.835062255859375,-1.2671271369844674,-1.476989784604311,0.7305002402864396
1646167863441044200,7.845044189453125,-1.290669925135374,-1.9594190810382366,0.7995012227330356
1646167863451025200,7.855025146484375,-1.3076391801148652,-2.3900205750793218,0.8015885504011064
1646167863461006300,7.86500634765625,-1.4887702387690542,-2.688929871895909,0.7987958509426564
1646167863470987300,7.8749873046875,-1.8101812902510166,-2.7859301104456184,0.7604962962299585
1646167863480969500,7.884969482421875,-2.3617104263961313,-2.7829087167978286,0.6243729116249829
1646167863490950400,7.894950439453125,-3.116761901223659,-2.923382186371088,0.48398836244419213
1646167863500931300,7.904931396484375,-3.827035492169857,-3.3004332920104265,0.4395590728048235
1646167863510912500,7.91491259765625,-4.265125880661606,-3.6693104435443877,0.47931934771984813
1646167863520894200,7.924894287109375,-4.416934983241558,-3.69073492436707,0.4233054187487811
1646167863530875400,7.93487548828125,-4.390706901529431,-3.300480638283491,0.13467303966619074
1646167863540856300,7.944856201171875,-4.440715671801567,-2.639606745800376,-0.21026713676750658
1646167863550837200,7.954837158203125,-4.736405422049761,-1.8691577953547238,-0.38797728106230495
1646167863560819500,7.9648193359375,-5.394952917411923,-0.8227975618422031,-0.643752515681833
1646167863570800400,7.97480029296875,-5.900055233424902,0.0883387931883335,-0.9211145090136676
1646167863580781300,7.98478125,-5.773004724526405,0.7218237434864043,-1.2052159666683524
1646167863590762500,7.994762451171875,-4.774220481181144,0.9888900413185358,-1.3872897860653697
1646167863600744200,8.004744140625,-3.138746938538551,0.8790227224111556,-1.2333777198567986
1646167863610725400,8.014725341796876,-1.6421218946158884,0.9691355395346879,-1.118330002636835
1646167863620706300,8.024706298828125,-0.32765959048271176,1.1495061352103948,-1.139379074275866
1646167863630687200,8.034687255859374,0.7982944042265415,0.9724696523934602,-1.1738828169021756
1646167863640669400,8.04466943359375,1.5781126560419796,0.8644511762231588,-1.2803962222717702
1646167863650650400,8.054650390625,2.0796955657571554,0.9410527698665857,-1.4713196300134062
1646167863660631300,8.06463134765625,2.298226673001051,1.0818015492498874,-1.6543236429326236
1646167863670612200,8.0746123046875,2.163546984398365,1.3429098154604435,-1.7088522287167607
1646167863680594400,8.084594482421876,1.8482962091118096,1.6378396872520447,-1.6115500846110284
1646167863690575400,8.094575439453125,1.3806331046551465,1.8138503341525791,-1.2891687267921865
1646167863700556300,8.104556396484375,0.9022551294386386,1.8323089509069919,-0.7393561853066086
1646167863710537500,8.114537353515624,0.561579405516386,1.7549118229717016,-0.21622575291097162
1646167863720519400,8.12451953125,0.2902262241452932,1.7502572751641272,0.12930749404504893
1646167863730500000,8.1345,0.18492519024014473,1.7993991994738578,0.34698651450425383
1646167863740481300,8.144481201171875,0.4291606475830078,1.867947250521183,0.3949303150705993
1646167863750462200,8.154462158203126,0.8086059548825025,1.8470114299982785,0.3416220648616552
1646167863760443400,8.164443359375,1.3107073355138301,1.7860557337760925,0.31411358795017
1646167863770425300,8.17442529296875,1.9054303012192249,1.80765674020946,0.1669536263503134
1646167863780406300,8.18440625,2.423957915994525,1.864905398607254,0.06716521838679909
1646167863790387500,8.194387451171876,2.8556086268275975,1.9042115730792284,-0.02264716361858882
1646167863800368400,8.204368408203125,3.1619781765222545,1.8105378486037254,-0.12929872621670366
1646167863810350300,8.214350341796875,3.419298156365752,1.73206812300086,-0.19261340665519236
1646167863820331300,8.224331298828124,3.638208618316054,1.7203092961460351,-0.190837793551106
1646167863830312200,8.234312255859376,3.8825370146393774,1.6464987945258616,-0.2076012785591185
1646167863840293400,8.24429345703125,4.0513288162022825,1.5660615682423114,-0.2699059051722288
1646167863850275300,8.254275390625,4.058624818429351,1.4771066889822482,-0.31184885788857936
1646167863860256500,8.264256591796874,3.876667245823145,1.3411883984953163,-0.34092487637773156
1646167863870237400,8.274237548828125,3.6107144621908662,1.197516425141692,-0.3160704211063683
1646167863880218400,8.28421826171875,3.300895064303279,1.082068675753474,-0.2819029612297192
1646167863890200300,8.294200439453125,2.965805031558871,0.9661971479952335,-0.28422683760002254
1646167863900181200,8.30418115234375,2.6365672319740057,0.8095534648656845,-0.24542408260554074
1646167863910162400,8.314162353515625,2.278332470485568,0.5894798043549061,-0.19387509715408086
1646167863920143400,8.324143310546875,1.954168320903182,0.400181805858016,-0.19978059487082064
1646167863930125300,8.334125244140624,1.6285376058995722,0.0603407791942358,-0.19879757518284022
1646167863940106500,8.3441064453125,1.3075848195791244,-0.23200492132306097,-0.22684498127661645
1646167863950087400,8.35408740234375,1.0284440530717371,-0.534747512692213,-0.2901634611073881
1646167863960068400,8.364068359375,0.8632353706926107,-0.8193167339891195,-0.299541311109811
1646167863970050300,8.37405029296875,0.9151514358907937,-1.0949871940374374,-0.2932296437449753
1646167863980031200,8.38403125,0.9928671282559632,-1.3787164573788642,-0.32621994960103184
1646167863990012400,8.394012451171875,0.8706079452872276,-1.7104291226446628,-0.2999841595064848
1646167863999993300,8.403993408203124,0.3548948034107685,-1.9745406623244284,-0.33170959652587767
1646167864009975600,8.4139755859375,-0.6600818653225898,-2.181444460138678,-0.3013551555987447
1646167864019956200,8.423956298828125,-2.063653362494707,-2.2850451198667288,-0.20032602685913442
1646167864029937200,8.433937255859375,-3.3379677806347607,-2.3875895485401153,-0.13443945010602473
1646167864039918300,8.44391845703125,-4.280760672166943,-2.4114462249457835,-0.010814166415855288
1646167864049899300,8.453899169921876,-4.912624743264913,-2.498717681163549,0.17754143666438757
1646167864059881500,8.463881591796875,-5.2325721519351,-2.3516256702333687,0.23579627643004059
1646167864069862400,8.4738623046875,-5.331479100888967,-1.9981500859707593,0.28217596948482093
1646167864079843300,8.48384326171875,-5.408375293564796,-1.4539236740544437,0.25801205376088615
1646167864089824500,8.493824462890625,-5.772948025903105,-0.8440320730507374,0.19363960789777337
1646167864099806200,8.50380615234375,-6.21138445135355,-0.372029478085041,0.11110197526887058
1646167864109787100,8.513787109375,-6.062281685122847,-0.25088468609899284,0.015460384786501526
1646167864119768300,8.523768310546876,-5.024166132864356,-0.4703662259355187,0.03835230781324207
1646167864129748700,8.533748779296875,-3.582345861318707,-0.3690069153934717,0.06485708757489919
1646167864139731000,8.54373095703125,-2.126075624138117,-0.17011778946965933,0.13154277881644666
1646167864149712000,8.5537119140625,-1.122457384765148,-0.13083587265610694,0.2918996372502297
1646167864159692800,8.56369287109375,-0.6654892773240805,-0.015910101315379142,0.4923932026959955
1646167864169674000,8.573674072265625,-0.5906131922990083,0.1376993286848068,0.7437242443230002
1646167864179655700,8.58365576171875,-0.7137380521863699,0.30836686099171634,1.0083444641772656
1646167864189636900,8.593636962890624,-0.8452122227460146,0.4804121113926172,1.3252803430065512
1646167864199617800,8.60361767578125,-0.7900468003630637,0.6428104125261307,1.6771113749325275
1646167864209598700,8.6135986328125,-0.5297872599363327,0.7910662065386772,1.9669066603146492
1646167864219581000,8.623580810546875,-0.17642273483276366,0.9164736244052648,2.210313119487464
1646167864229561900,8.633561767578126,0.2279945166379213,1.0660708961546421,2.471565470343828
1646167864239543000,8.64354296875,0.5559036979675293,1.236525077971816,2.6468559862762686
1646167864249524000,8.65352392578125,0.7793716770917177,1.4517483758419751,2.5713220218643547
1646167864259506000,8.663505859375,0.9246545927733182,1.7249843022197484,2.1961665207132697
1646167864269486800,8.67348681640625,0.9986199926942586,1.9603081388324497,1.649244439972192
1646167864279467800,8.6834677734375,1.1457821462512017,1.974824739962816,1.1786080918584019
1646167864289449000,8.693448974609375,1.3702110793620348,1.96081141217947,0.882654210781306
1646167864299431000,8.703430908203124,1.6448481047093868,2.070655934733152,0.7208967648345976
1646167864309411800,8.713411865234375,2.0247908401370047,2.1461545355707408,0.654109805175662
1646167864319393000,8.72339306640625,2.5939199303805824,2.129378172814846,0.5668623874206096
1646167864329374000,8.7333740234375,3.340156230589747,2.0300094515681266,0.3571731966715306
1646167864339356000,8.74335595703125,4.253215078115463,1.8282418475985527,0.1423931855894625
1646167864349336800,8.7533369140625,4.85545031914711,1.7683441359966992,0.06868468303903937
1646167864359317800,8.76331787109375,5.128657019430398,1.8022656948208808,-0.02774506214633584
1646167864369299000,8.773298828125,5.288139725378155,1.452683026343584,-0.1510018778502941
1646167864379280000,8.78327978515625,5.323824786743521,1.0295739338845014,-0.224516903655231
1646167864389262000,8.793261962890625,5.2902364053964614,0.8052940538555383,-0.20679836467839777
1646167864399242800,8.80324267578125,5.081064078128337,0.789565154325962,-0.16559154421687125
1646167864409223700,8.8132236328125,4.639619118511677,0.9744272162020206,-0.2853262502092868
1646167864419204900,8.823204833984375,4.097235996374487,1.1772761856675147,-0.4583906875900924
1646167864429186800,8.833186767578125,3.513647003623843,1.1161959862828255,-0.5229548566330224
1646167864439168000,8.84316796875,2.844716061413288,0.8150643372416496,-0.36094219381622966
1646167864449149000,8.85314892578125,2.0764836179733277,0.4120055146425962,-0.11546068193502723
1646167864459129900,8.8631298828125,1.190055003219843,0.07198971593379974,-0.0076771104991436
1646167864469111800,8.87311181640625,0.24618834497630596,-0.22828794662654397,0.018048063192144036
1646167864479092700,8.8830927734375,-0.5797065983593463,-0.47257951807081694,0.039286739119142294
1646167864489074000,8.893073974609376,-1.2210650585114955,-0.7606143696516752,0.09644267773218453
1646167864499054800,8.903054931640625,-1.6059709693044424,-1.1023550924569367,0.1820667320691049
1646167864509036800,8.913036865234375,-1.7555325852185486,-1.3329443017631768,0.14130641326606272
1646167864519018000,8.92301806640625,-1.7503344320535659,-1.5337807623624802,0.0017439210578799247
1646167864528999000,8.9329990234375,-1.698575018721819,-1.735309881401062,-0.1651408778399229
1646167864538979800,8.942979736328125,-1.7266051814198493,-1.7717080594718455,-0.282526025031507
1646167864548961000,8.9529609375,-1.9684850155472755,-1.7164403457581996,-0.3586065174102783
1646167864558942700,8.962942626953126,-2.427007951214909,-1.7107821738660334,-0.36811610403358935
1646167864568924000,8.972923828125,-2.909882653328776,-1.9442741188764572,-0.2795688557263464
1646167864578904800,8.98290478515625,-3.192418907493353,-2.450062079066038,-0.26499782099500296
1646167864588885800,8.9928857421875,-3.2920091625362633,-2.967505990257859,-0.3522808945853263
1646167864598868000,9.002867919921876,-3.289191767027974,-3.0929449723064897,-0.6953552040819079
1646167864608849000,9.012848876953125,-3.2306600830823182,-2.822418304887414,-1.0704254381023346
1646167864618830000,9.022830078125,-3.3141894301623105,-2.4308587814241647,-1.2450655273020266
1646167864628811000,9.03281103515625,-3.702445235905051,-1.9547832379311323,-1.2019734045505523
1646167864638793000,9.04279296875,-4.484366597479582,-1.3522650883048772,-1.0272273707583546
1646167864648774000,9.05277392578125,-5.174972195881605,-0.7283586982131004,-0.8170726083241403
1646167864658754800,9.0627548828125,-5.182276381415129,-0.3704840022087097,-0.5902816953223198
1646167864668736000,9.072736083984376,-4.5526177114069455,-0.12667349227964878,-0.37734738517217337
1646167864678718000,9.082718017578125,-3.648089960861206,0.2624719557791948,-0.5124926454599946
1646167864688699000,9.092698974609375,-2.670435014784336,0.49563715305328365,-0.7564710593018681
1646167864698679800,9.1026796875,-1.8657681529164314,0.5050017782479524,-0.8777296138606965
1646167864708660700,9.11266064453125,-1.2660896106302737,0.4628694404393434,-0.84618589008376
1646167864718643000,9.122642822265625,-0.7809691754162311,0.4367261144012213,-0.736646122630313
1646167864728623900,9.132623779296875,-0.4305249216735363,0.4678729478150606,-0.6562871492147445
1646167864738604800,9.142604736328124,-0.17797405592799187,0.6898889745652675,-0.6448520013563335
1646167864748586000,9.1525859375,0.07282499771416187,0.9720219086259603,-0.6546059181295335
1646167864758568000,9.16256787109375,0.23574995307028293,1.2455728923022746,-0.6573134965877979
1646167864768548900,9.172548828125,0.2633867325365543,1.5087626409620045,-0.5873968606010079
1646167864778529800,9.18252978515625,0.2753074719548225,1.6951514740139244,-0.403053854162991
1646167864788510700,9.1925107421875,0.37152795830368995,1.8797458248645067,-0.22292481215819715
1646167864798492000,9.202491943359375,0.6450736812829971,2.0382114627242087,-0.04571458020955324
1646167864808473900,9.212473876953124,1.039669795963168,2.202477311295271,0.057757411637529725
1646167864818455000,9.222455078125,1.43859078810513,2.4038725748211145,0.1400537828564644
1646167864828436000,9.23243603515625,1.8454390661150215,2.6184879699259995,0.12139599026814102
1646167864838417000,9.2424169921875,2.3721242683827874,2.596110718423128,0.1969348500508815
1646167864848398800,9.25239892578125,2.981924976232648,2.502453360560536,0.31474165672063825
1646167864858379800,9.2623798828125,3.5894086393117903,2.465330375346541,0.44121348894834517
1646167864868360700,9.272360595703125,4.0933810745120045,2.511000824153423,0.4652914068892598
1646167864878342000,9.282341796875,4.517071766251325,2.461719783633947,0.4984503107778728
1646167864888323800,9.29232373046875,4.856926236918568,2.35533446162343,0.5735467605553567
1646167864898305000,9.302304931640625,5.146994640153646,2.167395476520061,0.6750617000505328
1646167864908286000,9.312285888671875,5.3938931792259215,2.0207681604921817,0.606721008143574
1646167864918267000,9.322266845703124,5.586348764970898,1.851329877719283,0.5453533701196313
1646167864928247800,9.332247802734376,5.583565271732211,1.6415777047365903,0.43669718056768175
1646167864938229800,9.342229736328125,5.421899961048364,1.3899001146942376,0.337493294493854
1646167864948211000,9.3522109375,5.086162862572074,1.1947931376576424,0.20826412638202307
1646167864958191900,9.36219189453125,4.6861605049341915,1.028740990191698,0.06696955425080377
1646167864968172800,9.3721728515625,4.131749675872921,0.8643021231412887,-0.11116188876256346
1646167864978155000,9.382155029296875,3.469552425831556,0.594604892283678,-0.20575272808298467
1646167864988136000,9.392135986328125,2.70662744114995,0.22633798160254953,-0.14749766912162304
1646167864998116900,9.402116943359376,1.8625240564286707,-0.20299159280657766,-0.05398286153487861
1646167865008097800,9.412097900390625,0.9283744900792836,-0.5748416226714849,0.10484005619673989
1646167865018079700,9.422079833984375,-0.10381517926156521,-0.9040227236330509,0.3141687522035092
1646167865028061000,9.43206103515625,-1.084890747436881,-1.256805064934492,0.45853009606078265
1646167865038041900,9.442041748046876,-1.8991583813428878,-1.5668898357599972,0.5379568301275373
1646167865048023000,9.45202294921875,-2.5319103411912915,-1.8959791667848824,0.4447375714212656
1646167865058004700,9.462004638671875,-3.0006285076588393,-2.282890279920399,0.30958544300124047
1646167865067985700,9.471985595703124,-3.4129069940239187,-2.6348347090929747,0.20047449541911483
1646167865077966800,9.481966796875,-3.743842829698324,-2.890397323875129,0.08691475173458456
1646167865087947800,9.49194775390625,-4.053454722315073,-3.0593118750348687,-0.012698299662023783
1646167865097928700,9.5019287109375,-4.5375709489226335,-3.071060472756624,0.004005655444785952
1646167865107911000,9.511910888671874,-5.0839504472196095,-3.194124834628403,0.04106223349221982
1646167865117891800,9.521891845703125,-5.387952098739147,-3.4917344470232723,0.20091442120634018
1646167865127872800,9.531872802734375,-5.276228922832012,-3.63667746322602,0.358437298323214
1646167865137854000,9.54185400390625,-4.875885204410553,-3.4931478209525344,0.31082331423312426
1646167865147835600,9.551835693359376,-4.5066737063556905,-3.2224133560016748,0.2475800185304135
1646167865157816600,9.561816650390625,-4.581095617872476,-2.5287945472583173,0.1377734168343246
1646167865167797800,9.5717978515625,-4.797129647603631,-1.7371105010822414,-0.016805077393725512
1646167865177778700,9.58177880859375,-4.992251822209358,-1.1675339593321084,-0.010076353660598397
1646167865187761000,9.591760986328126,-5.081211962166428,-0.6160626908540725,0.08504808107987046
1646167865197741800,9.601741943359375,-4.685979887670278,0.023693010276556015,0.06616364012882113
1646167865207722800,9.61172265625,-3.6352947766959667,0.3681637425675988,0.0033074440475553274
1646167865217704000,9.621703857421876,-2.3540561122506856,0.4753884380117058,0.06055909812003374
1646167865227685600,9.631685546875,-1.2012246320098638,0.6814779968336224,0.10467340352609752
1646167865237666800,9.641666748046875,-0.43040567920804024,1.0173492430835962,0.08524404204338788
1646167865247647700,9.651647705078124,-0.11800970883071422,1.3372621649622916,0.1190277906989213
1646167865257628700,9.661628662109376,-0.03541793486177921,1.5959879199504852,0.23433804044574497
1646167865267609900,9.67160986328125,0.06863222219944,1.783326016551256,0.38455899705141783
1646167865277591800,9.681591796875,0.30856326034665105,1.8870289676100014,0.5785473453216254
1646167865287572700,9.69157275390625,0.6664239278256893,1.9080179796248673,0.7605721379451453
1646167865297553700,9.7015537109375,1.0902402917712926,1.8862468773216008,0.9723200147897004
1646167865307534600,9.71153466796875,1.4184890803188084,1.9367536602437494,1.165022195706889
1646167865317516800,9.721516845703125,1.599360026732087,1.9886527743071316,1.331116209553182
1646167865327497700,9.731497802734374,1.5745710379123687,2.084771553847194,1.4587648304753005
1646167865337478700,9.741478759765625,1.339452953004837,2.2567852400660513,1.3339967334255576
1646167865347459800,9.7514599609375,1.1761223394572735,2.3940368249833583,0.9759755416225642
1646167865357441500,9.761441650390625,1.4140776936173438,2.3221195897638798,0.584392125827074
1646167865367422700,9.771422607421876,1.9221902973622083,2.2682938915520907,0.3027395956944674
1646167865377403600,9.781403564453125,2.3675872094750403,2.321114212113619,0.0888443315576762
1646167865387384600,9.791384521484375,2.780955244642496,2.303433593994379,-0.10169453384578227
1646167865397366800,9.80136669921875,3.3982635516434905,2.068324861437082,-0.23174877287121487
1646167865407347700,9.81134765625,3.8842192686378954,1.9261381582051516,-0.3823554956577718
1646167865417329000,9.821328857421875,4.226376171028614,1.859026861962676,-0.5198035529952496
1646167865427309800,9.831309814453125,4.517802418613433,1.7561632843375206,-0.5935792755629867
1646167865437290800,9.841290771484376,4.714391158640384,1.6046031880825757,-0.5538854169476777
1646167865447272700,9.851272705078125,4.7603322410821916,1.462142344084382,-0.48221039298623797
1646167865457253600,9.861253662109375,4.732067100584507,1.3108376838952303,-0.39545580024942756
1646167865467234800,9.87123486328125,4.567160616022348,1.1460492727547884,-0.29624345687450837
1646167865477215700,9.8812158203125,4.200923749864101,0.9544254616588354,-0.18522979920990765
1646167865487197700,9.89119775390625,3.676929686376452,0.7547878554552793,-0.11257957354076206
1646167865497179000,9.901178955078125,3.1215421212375163,0.650941112011671,-0.06471205308102071
1646167865507159800,9.911159912109374,2.5018764374554157,0.5293886160075664,0.033626594465598465
1646167865517141000,9.92114111328125,1.8399486520051955,0.3135357880622148,0.10746697976738213
1646167865527122700,9.931122802734375,1.2857383139520884,0.043566754525899885,0.11409794221445918
1646167865537103600,9.941103515625,0.8346002278387546,-0.22017069114446639,0.10229702978357672
1646167865547084800,9.951084716796874,0.3736439275443554,-0.4746504791259765,0.04805990122668445
1646167865557065700,9.961065673828125,-0.03473696686029434,-0.7889560825169086,0.03587751519754529
1646167865567046700,9.971046630859375,-0.3191068661928177,-0.9954597750976681,0.031571123240515586
1646167865577028900,9.98102880859375,-0.4929086048722267,-1.1091998437851667,-0.0006917816564440726
1646167865587009800,9.991009765625,-0.5858060842782259,-1.348738667744398,-0.018271569749712942
1646167865596990700,10.00099072265625,-0.7147498595774173,-1.5919138023793697,0.016283300275634974
1646167865606971600,10.0109716796875,-0.9718366151869297,-1.731204784169793,0.021954861372336744
1646167865616953900,10.020953857421874,-1.2267688231110572,-1.8804583570480347,-0.04458382261395454
1646167865626934800,10.030934814453126,-1.55088270381093,-1.9260212538272141,-0.20477964526712894
1646167865636915700,10.040915771484375,-2.001746064636111,-1.9644193735435604,-0.3931507381774485
1646167865646897000,10.05089697265625,-2.5431103651195763,-2.341009291411936,-0.5676932122215629
1646167865656878600,10.060878662109374,-3.0159014801144597,-2.9002579158931967,-0.7612348396375775
1646167865666859800,10.07085986328125,-3.2593542626470327,-3.3945345942482352,-1.0463902633246034
1646167865676840700,10.0808408203125,-3.25521818575561,-3.5452333974987265,-1.2659575086832047
1646167865686821600,10.090821533203124,-3.284267754629254,-3.0666026165649294,-1.3134738776177166
1646167865696802800,10.100802734375,-3.8497073427051305,-2.1992323380246757,-1.223356749645248
1646167865706784800,10.11078466796875,-5.287410242059827,-1.1689274595171213,-0.8521470635104924
1646167865716765700,10.120765625,-7.078342057439684,-0.0011228665500879287,-0.5477588238261639
1646167865726747000,10.130746826171874,-8.244591237658263,0.7441752760261297,-0.6265001329120248
1646167865736727800,10.140727783203126,-7.91961635621488,0.7214946576625109,-0.6268665550716221
1646167865746709800,10.150709716796875,-6.6390317717641585,0.6318862829297781,-0.5783221582636237
1646167865756690700,10.160690673828125,-5.186025504815579,0.9310828722551464,-0.6882447875548153
1646167865766671600,10.170671630859376,-3.642960196757316,1.1400737054765224,-0.8793196595311165
1646167865776652800,10.18065283203125,-2.2544214335441586,1.176910274964571,-0.9239159032352268
1646167865786633700,10.1906337890625,-1.1782131742566824,1.1671136880934239,-0.8087216171514242
1646167865796616000,10.200615966796875,-0.42604105425775046,1.1469868458658457,-0.6889090966824442
1646167865806596900,10.210596923828126,0.032848376634716986,1.1552969935715198,-0.6442856727104633
1646167865816577800,10.220577880859375,0.30749943050742146,1.1692127061992883,-0.6739123838849366
1646167865826558700,10.230558837890625,0.5130927302449941,1.2076987964600323,-0.6665916125427931
1646167865836540700,10.240540771484374,0.7298164958059787,1.2789368172436952,-0.6250593595191836
1646167865846521900,10.25052197265625,0.9144085085690021,1.3619775040239095,-0.5320305818837135
1646167865856502800,10.260502685546875,1.014222050973773,1.520873349994421,-0.4093031968813389
1646167865866483700,10.270483642578125,1.123667929598689,1.5986118387132882,-0.23318107069665564
1646167865876466000,10.2804658203125,1.408802968084812,1.5364128644317387,-0.05922384919459
1646167865886446600,10.290446533203125,1.853767333999276,1.493431216317415,0.09613258886970578
1646167865896427800,10.300427734375,2.414489245903492,1.524286373308301,0.1998431387130171
1646167865906408700,10.31040869140625,2.8381834447741507,1.7526216662079095,0.02297353689558804
1646167865916389600,10.3203896484375,3.370240987730026,1.8858207608640192,-0.11263678362071514
1646167865926371800,10.330371826171875,3.908822964018583,1.8390987571775912,0.0068669996926560995
1646167865936352800,10.340352783203125,4.329315736499429,1.791858867096901,0.21258286636397242
1646167865946333700,10.350333740234374,4.583544180068373,1.7426356942445038,0.4434119488406926
1646167865956315000,10.36031494140625,4.750520456641913,1.7505875300318001,0.5747554056927562
1646167865966296600,10.370296630859375,4.885315880578756,1.7640128287941217,0.6078850104216486
1646167865976277800,10.38027783203125,4.978790283089876,1.689029776263237,0.6357408394660801
1646167865986258700,10.3902587890625,5.028108733010292,1.5369780970990656,0.6762640615776181
1646167865996239600,10.400239501953125,4.957250066933035,1.242405368182063,0.7215405426308512
1646167866006221800,10.410221923828125,4.689291204175353,0.9064549192160367,0.7742057456959038
1646167866016202800,10.42020263671875,4.076344599515199,0.7624304791629314,0.7408854407005011
1646167866026184000,10.430183837890626,3.3544974751532077,0.8392313947707414,0.5880415882453323
1646167866036164900,10.440164794921875,2.7920138142734765,0.8031208014696836,0.45721981717981397
1646167866046145800,10.450145751953125,2.3332775281161067,0.5695569602668284,0.47871349078118797
1646167866056127700,10.460127685546874,1.8542711918681858,0.33385318442583084,0.5560116883866488
1646167866066108700,10.470108642578126,1.3676830221891403,0.13072072184383868,0.5250030213344842
1646167866076089900,10.48008984375,0.9224006763666868,-0.0755862791210413,0.40054895866997536
1646167866086070800,10.49007080078125,0.4454278917729854,-0.3089911303699016,0.22855342916231602
1646167866096052700,10.500052734375,-0.06626841567754745,-0.5556652130365372,0.009175386232882738
1646167866106034000,10.510033935546875,-0.5361521187931299,-0.8375076397180556,-0.2521484224244952
1646167866116014600,10.5200146484375,-0.951442061933875,-1.1614321353256702,-0.4614535092268139
1646167866125995800,10.529995849609374,-1.2060586280375718,-1.5029752897322177,-0.5881212658854201
1646167866135976700,10.539976806640626,-1.4453753336787223,-1.8400585421204565,-0.6873426510833204
1646167866145959000,10.549958984375,-1.8036533497869967,-2.057765181238949,-0.7493992942847311
1646167866155939800,10.55993994140625,-2.338545823907852,-2.1838722718074917,-0.7467691649768501
1646167866165920800,10.569920654296874,-2.9914596972972154,-2.2629914012297987,-0.6258505098968744
1646167866175902000,10.57990185546875,-3.618071839216351,-2.3443276221796867,-0.4801318696791306
1646167866185883600,10.589883544921875,-3.9971886452138423,-2.7017662648543714,-0.33642398476190866
1646167866195864800,10.59986474609375,-4.002608916696905,-3.0981133148550986,-0.19335569465616717
1646167866205845800,10.609845703125,-3.688399174895882,-3.193880796739459,-0.19111082007251678
1646167866215826700,10.61982666015625,-3.3743694658368826,-3.0524095483005045,-0.37411731720976527
1646167866225809000,10.629808837890625,-3.376725673574209,-2.7124481101274487,-0.6154745887678116
1646167866235789800,10.639789794921874,-3.757190387049317,-2.2580445924773813,-0.7649675233598798
1646167866245771000,10.64977099609375,-4.352725253659487,-1.720592789262533,-0.6364901965286582
1646167866255752000,10.659751953125,-4.870467855536938,-1.144240762028098,-0.3699722898269072
1646167866265732900,10.66973291015625,-5.0340270171433685,-0.5813438441723585,-0.12935085826274006
1646167866275714800,10.67971484375,-4.791559153994918,0.09837854116559028,0.07055734504312276
1646167866285695700,10.68969580078125,-4.111932630246877,0.7035925057470798,0.08475289752557873
1646167866295677000,10.699677001953125,-3.125836019039154,1.0273960053235291,0.12564634118899703
1646167866305657900,10.709657958984375,-2.1618431030899283,1.217162498115003,0.1665573205091059
1646167866315639800,10.719639892578124,-1.3443676130533218,1.3420157892301678,0.08592639828436076
1646167866325621000,10.72962109375,-0.7529501186341047,1.4160034009829163,0.16206278556883333
1646167866335602000,10.739601806640625,-0.2967284456461668,1.3674825311809777,0.3769051943626255
1646167866345582800,10.749582763671874,0.20584055249691008,1.3426333366066217,0.6110714584380388
1646167866355563800,10.759563720703126,0.6875590703129768,1.337822721454501,0.7947159612178802
1646167866365545700,10.769545654296875,0.9924158773571252,1.2993600120693445,0.9136926153846084
1646167866375527000,10.77952685546875,1.1609072346687317,1.3292694126427174,1.021709118793532
1646167866385507800,10.7895078125,1.237239363721013,1.450444892027974,1.1081565452773123
1646167866395488800,10.79948876953125,1.1525590930402279,1.5956477282106876,1.098525962622836
1646167866405471000,10.809470947265625,1.0468675985127687,1.6521090356230734,0.9935462696265429
1646167866415451600,10.81945166015625,1.120311020386219,1.6724053891986608,0.8232040968164801
1646167866425432800,10.829432861328126,1.3873755646526813,1.6660896301805972,0.5416255817681551
1646167866435413800,10.839413818359375,1.8209791631191967,1.68792327632606,0.2675010359875858
1646167866445396000,10.84939599609375,2.3588339941769836,1.6910913849681615,-0.01376424839310348
1646167866455377000,10.859376953125,2.8865105455696582,1.6410340993791817,-0.2629753752566874
1646167866465357800,10.86935791015625,3.372347020098567,1.614708987033367,-0.4839852206390351
1646167866475339000,10.879339111328125,3.836677765262127,1.5741531047612427,-0.6158303434029221
1646167866485320000,10.88931982421875,4.322743372371793,1.531634397983551,-0.7100881513766945
1646167866495301600,10.899301513671874,4.75291173569262,1.4591530991405248,-0.8090244725555181
1646167866505282800,10.90928271484375,5.061180981528759,1.4075246187120676,-0.9223797797091304
1646167866515263700,10.919263671875,5.2580608134567735,1.340931793385744,-1.0083834079481662
1646167866525245000,10.929244873046875,5.321218403637409,1.2060814243912696,-0.9863919408924877
1646167866535227000,10.939226806640624,5.304174914377928,1.0875351244658231,-0.8901239621400833
1646167866545207800,10.949207763671875,5.1979041586577885,1.008959015879035,-0.7369175599828363
1646167866555189000,10.95918896484375,4.996044784751534,0.9342536112457513,-0.6030779024008661
1646167866565170000,10.969169921875,4.6801218092918395,0.8380728723853826,-0.4629353452824056
1646167866575150800,10.97915087890625,4.287361093345284,0.7880921591639518,-0.3239258838471025
1646167866585132800,10.9891328125,3.7227836750566956,0.7315601246029139,-0.18154658065252005
1646167866595113700,10.99911376953125,2.8928923555612562,0.5427905338943004,-0.08161233447752893
1646167866605095000,11.009094970703124,1.9644260955452917,0.3276350405633449,-0.011723463280498982
1646167866615075800,11.019075927734375,1.0937263803213835,0.103858433881402,0.029966391457617283
1646167866625058000,11.02905810546875,0.26606442731320856,-0.2111401202097535,0.02658763573952019
1646167866635039000,11.0390390625,-0.4433598533272743,-0.5226657374933362,0.022025661586225032
1646167866645019600,11.04901953125,-1.0732406416535376,-0.775806970347464,0.09067859778013079
1646167866655000800,11.059000732421875,-1.6870160983532667,-1.0375281077593563,0.20245843577794728
1646167866664981800,11.068981689453125,-2.32859024708271,-1.3303247669145464,0.3823711316183209
1646167866674964000,11.0789638671875,-2.7888457056313753,-1.6500424584820865,0.5564144970338791
1646167866684945000,11.08894482421875,-3.0798774009406564,-2.0043860577508807,0.6912439693707972
1646167866694925800,11.09892578125,-3.2375001582354304,-2.2392753023386,0.7058830278370529
1646167866704907000,11.108906982421875,-3.4063977582603693,-2.3818317156657574,0.579531460988149
1646167866714888700,11.118888671875,-3.6682623957961797,-2.532135966640711,0.34120983079895373
1646167866724869600,11.12886962890625,-3.785343299344182,-2.899671640437841,0.13425159938372672
1646167866734850800,11.138850830078125,-3.8238212062984704,-3.1060438155934214,-0.03108224374502897
1646167866744831700,11.148831787109375,-3.68829162286818,-3.1340152338415384,-0.061580623187497255
1646167866754812700,11.158812744140626,-3.689420334637165,-2.8190187255769965,-0.06696874596662819
1646167866764795000,11.168794921875,-4.04448815652728,-2.0708128788605333,-0.0928806744016707
1646167866774775800,11.17877587890625,-4.8439416676610705,-1.2328142407551408,-0.07604169473834335
1646167866784757000,11.188757080078124,-5.8402872856825585,-0.6476815256938337,-0.008077581058815122
1646167866794738000,11.198738037109376,-6.577360036227106,-0.30240795258730646,-0.006012392157316208
1646167866804719900,11.208719970703125,-6.470052338674664,-0.12308394335508346,-0.20442396369725466
1646167866814700800,11.21870068359375,-5.556600692439079,0.202918235309422,-0.6241536428511142
1646167866824681700,11.228681640625,-4.1236745059669015,0.6180202546626329,-1.017487774771452
1646167866834663000,11.238662841796875,-2.7349031030416486,0.7704875288903713,-1.0983195533305405
1646167866844643800,11.248643798828125,-1.6120967587083577,0.7672536615356802,-1.0248282737273722
1646167866854626000,11.2586259765625,-0.8699480200737715,0.8406134967789053,-0.8667342456590383
1646167866864607000,11.26860693359375,-0.642654929703474,0.9440782551676035,-0.6394894514098763
1646167866874587600,11.278587646484375,-0.6860995191544293,1.0184560352817178,-0.45954950223639607
1646167866884568800,11.28856884765625,-0.6112415543079376,1.1120663391321897,-0.3931707580521703
1646167866894550800,11.29855078125,-0.3925993879050016,1.245809039145708,-0.4472160172987729
1646167866904531700,11.30853173828125,-0.07746376343071461,1.3568728743612766,-0.5116172508649528
1646167866914513000,11.318512939453125,0.32832886804640293,1.4876532174378632,-0.5274876777570694
1646167866924493800,11.328493896484375,0.7347282332450151,1.6183873832851647,-0.4406191763170063
1646167866934475000,11.33847509765625,1.1129600731015206,1.7464467769652603,-0.25417189107611776
1646167866944456700,11.348456787109376,1.4252099130064249,1.8388029891014097,0.00741078771315515
1646167866954437600,11.358437744140625,1.715335599386692,1.871201283881068,0.3195566557869315
1646167866964418800,11.368418701171874,2.047989344894886,1.9329864166647195,0.4775164630163461
1646167866974399700,11.378399658203126,2.426313539209962,2.064806039661169,0.6228042740687727
1646167866984382000,11.3883818359375,2.8321529324382544,2.2391180659502745,0.7083081360921263
1646167866994363000,11.39836279296875,3.2841420824229717,2.3940660510778424,0.6834861217856407
1646167867004343800,11.40834375,3.7459319109320637,2.3463801707953214,0.7417825356706976
1646167867014325000,11.418324951171876,4.090981027632951,2.195833635497093,0.8850454898320138
1646167867024306000,11.428305908203125,4.359292941612005,2.034548264041543,0.8974380845457315
1646167867034287900,11.438287841796875,4.55578055935204,1.905180125850439,0.8220579955212771
1646167867044268800,11.448268798828124,4.596439901998639,1.8301584948748348,0.6499825691778213
1646167867054249700,11.458249755859375,4.597012148928642,1.7852800732284784,0.3971652345158159
1646167867064231000,11.46823095703125,4.491458017045259,1.6544985611081122,0.14568703950308262
1646167867074212900,11.478212890625,4.288908322787284,1.48616736279428,-0.006114245096594095
1646167867084194000,11.488194091796874,4.056255166688561,1.3734908316850662,-0.06961063877753913
1646167867094175000,11.498175048828125,3.8027591290473937,1.3195119887381792,-0.10440108939073979
1646167867104156000,11.508156005859375,3.4781180096030235,1.2860925342172385,-0.08880874878764151
1646167867114136800,11.51813671875,3.0919442708313465,1.1806184818327425,-0.05648585733175277
1646167867124118800,11.528118896484376,2.5644524283558128,1.0483265651494265,-0.08764226229153572
1646167867134100200,11.538100341796875,1.9953870509982108,0.8427204059302806,-0.1246855333328247
1646167867144081200,11.5480810546875,1.5674299339860678,0.571674683073163,-0.21027838881388305
1646167867154062000,11.55806201171875,1.1999305005460976,0.19611586181819438,-0.42143392578847705
1646167867164044000,11.5680439453125,0.8677484642028808,-0.21920096932947633,-0.5902953585214913
1646167867174025000,11.57802490234375,0.5566641609460116,-0.6160311266720294,-0.6439557831689715
1646167867184006000,11.588005859375,0.3007593085974455,-1.0079659131884575,-0.5809621513783931
1646167867193987000,11.597987060546876,0.06312777956426144,-1.3986737882584332,-0.4814487609639764
1646167867203968000,11.607968017578125,-0.3078822923451662,-1.7880775949925183,-0.4021357164047658
1646167867213950200,11.6179501953125,-0.8777642467826604,-2.1410522439956665,-0.4120283840615302
1646167867223931100,11.62793115234375,-1.7199258497864007,-2.3330133242219686,-0.3806453307390213
1646167867233912000,11.637912109375,-2.8344395820707082,-2.5258564479798076,-0.14973236937113105
1646167867243893200,11.647893310546875,-4.013118035751581,-2.9878543662816286,0.3983707378480583
1646167867253875000,11.657875,-5.159298825931549,-3.522045706395805,0.9115013889506459
1646167867263856000,11.667856201171874,-6.002890753999352,-3.663639996692538,1.1998778205107896
1646167867273837000,11.677837158203126,-6.394566597318649,-3.3755472774446007,1.1174984471835194
1646167867283818000,11.68781787109375,-6.6958753564924,-2.8311194977372884,0.8317056754410267
1646167867293799200,11.697799072265624,-6.955010276803374,-2.254159567737579,0.683424893117696
1646167867303781000,11.707781005859376,-7.05432989821136,-1.8270751419067381,0.5986794482462108
1646167867313762300,11.71776220703125,-6.666260554951429,-1.4771397144690155,0.5893300206206739
1646167867323743200,11.7277431640625,-5.624620920220017,-1.04862730166167,0.5748959832072258
1646167867333724000,11.737723876953124,-4.190819119957089,-0.5645809254199267,0.43773857937939464
1646167867343706000,11.7477060546875,-2.7830916721493004,-0.15251462050080297,0.3730988608822226
1646167867353687000,11.75768701171875,-1.6747312017977236,0.15653320849239824,0.41191520601063963
1646167867363668200,11.767668212890625,-0.9340835153758525,0.3969587521582842,0.4792043430380523
1646167867373649200,11.777649169921874,-0.6348340268194675,0.7944353907108307,0.4973631731282919
1646167867383630000,11.787630126953125,-0.30465865412354465,0.8910223722845315,0.6541999676771462
1646167867393612000,11.797612060546875,0.03861585412025451,0.7516799525678157,0.9494508150514215
1646167867403593000,11.807593017578125,0.26413492055535315,0.8632973300129174,1.205972776385024
1646167867413574000,11.817573974609376,0.443586063298583,1.0721236203223465,1.3296920219689607
1646167867423555000,11.82755517578125,0.5497580348193645,1.2226169641286133,1.4382102643549441
1646167867433536000,11.837535888671875,0.4819131636053324,1.4204992510974406,1.53046126255095
1646167867443518200,11.847518310546874,0.2540992642313242,1.7592858002722263,1.4661265914149582
1646167867453499100,11.8574990234375,-0.04306465022265911,2.046011907342076,1.2050441172327846
1646167867463480000,11.86747998046875,-0.278441678327322,2.0183628529161215,0.9143933109998702
1646167867473461200,11.877461181640625,-0.5150801046699285,1.965498108690977,0.6431899133630097
1646167867483443000,11.88744287109375,-0.6077338384479284,1.9694670123219489,0.47555984905585647
1646167867493424000,11.897424072265625,-0.3030266690075397,1.9658961680978535,0.31377354234084487
1646167867503405000,11.907405029296875,0.35111820748150346,1.9853987409472464,0.10641374438740313
1646167867513386000,11.917385986328124,1.214421382713318,2.060338538858294,-0.1897991529520601
1646167867523367200,11.9273671875,2.22362823587358,2.2045237224310634,-0.4726941574264317
1646167867533349000,11.93734912109375,3.1833886288195847,2.2925112179636953,-0.6862202229246497
1646167867543330300,11.947330322265625,4.058452968993783,2.212217784065008,-0.8367663198314607
1646167867553311200,11.957311279296874,4.7996863463491195,2.0681109264254567,-0.9492961359463632
1646167867563292000,11.9672919921875,5.428688013753295,1.9370260474443435,-0.9925650765694677
1646167867573274000,11.977274169921875,5.9857823828101155,1.7835919740110635,-0.9432013262026011
1646167867583255000,11.987255126953125,6.347292804968356,1.5744769298881292,-0.7911010586563497
1646167867593236000,11.997236083984374,6.582288724800944,1.4057055865913628,-0.6673192692302167
1646167867603217200,12.007217041015625,6.54706543572843,1.207495967364311,-0.680169179257378
1646167867613198000,12.017197998046875,6.194174373355508,0.9882336232364177,-0.6821603530745953
1646167867623180000,12.027179931640624,5.58485414249897,0.6866033770233392,-0.5169814082466065
1646167867633161000,12.037160888671876,4.877078213587403,0.3227899386197328,-0.19893829882778227
1646167867643142000,12.047141845703125,4.0220553754448884,0.05138415027856826,0.13673676726296544
1646167867653123000,12.057123046875,3.1353859376728535,-0.07755261075794696,0.38573140183165666
1646167867663104000,12.06710400390625,2.1914719331562518,-0.1368026721060276,0.5116526144392788
1646167867673086200,12.077086181640626,1.1671043357431887,-0.1885644235253334,0.5499489542815834
1646167867683067100,12.087067138671875,0.17706395534574984,-0.35738486666083336,0.6663398297388107
1646167867693048000,12.097048095703125,-0.777571349671483,-0.6060591832339763,0.8067539703402667
1646167867703029200,12.107029296875,-1.5406278517782688,-0.8372253156453371,0.8085699337210506
1646167867713011000,12.117010986328125,-1.999981977573037,-1.1893494852989912,0.7710770192161202
1646167867722992000,12.1269921875,-2.3417221158564088,-1.5341443349778652,0.6712662532903254
1646167867732973000,12.13697314453125,-2.6853058361798525,-1.6131068125337362,0.47189818474315104
1646167867742954000,12.1469541015625,-2.9514789845645426,-1.7056629311561584,0.17948972118794917
1646167867752936200,12.156936279296875,-3.1327520820379253,-1.963638744559884,-0.1269132193196565
1646167867762917000,12.166917236328125,-3.2131875547558066,-2.4718887109488246,-0.4205824965909123
1646167867772898300,12.176898193359374,-3.3119454506278037,-3.1355677239805457,-0.670666533831507
1646167867782879200,12.186879150390626,-3.506962411293387,-3.4933962427556513,-0.8995677900508046
1646167867792860000,12.19685986328125,-3.868713656470179,-3.4253476656630633,-0.9696708885204046
1646167867802842000,12.206842041015625,-4.449779268223047,-2.9532495013684033,-0.8665450066972523
1646167867812823000,12.216822998046876,-5.399086071693897,-2.088897693866491,-0.5898371298925951
1646167867822804000,12.226803955078125,-6.56424278050065,-1.187342821651697,-0.07036277231909334
1646167867832785200,12.23678515625,-7.642205774500965,-0.47210897794961926,0.6396868006128817
1646167867842766000,12.24676611328125,-8.010830412578581,-0.1823240678310394,1.206889818164706
1646167867852748000,12.256748046875,-7.276625910946726,0.04053659304976463,1.2985145011559127
1646167867862729000,12.26672900390625,-5.63960981503725,0.17705168038606642,1.1144262001313268
1646167867872710000,12.2767099609375,-3.6257682389378547,0.36589433633089063,0.7418224292896688
1646167867882691000,12.286691162109374,-1.7613684517651795,0.5589139856994152,0.28055735530704257
1646167867892673000,12.296673095703126,-0.5417559301495551,0.6645218935966491,-0.17974793373271822
1646167867902654200,12.306654296875,0.1481090790182352,0.6716214964687823,-0.578992897132039
1646167867912635100,12.31663525390625,0.5111912805378437,0.573024928638339,-0.8105379458583891
1646167867922616000,12.326615966796876,0.7128934180557728,0.5540063399136066,-0.8532395349223166
1646167867932597200,12.33659716796875,0.8828010719060897,0.6862602626740932,-0.8437535483703017
1646167867942579000,12.346578857421875,1.1144096873879432,0.9276216258853673,-0.7840192837018519
1646167867952560000,12.35656005859375,1.3440291748791933,1.2269926949948071,-0.6850161808971316
1646167867962541000,12.366541015625,1.5012632251173257,1.5017173986256123,-0.6112867086239159
1646167867972522000,12.37652197265625,1.5670254448384047,1.6973089443087577,-0.5201209118487313
1646167867982504200,12.386504150390625,1.6027531763017178,1.8272464068204164,-0.37890133661590514
1646167867992485000,12.396485107421874,1.6777800679743289,1.986993901184201,-0.21570684360340237
1646167868002466300,12.40646630859375,1.773579698562622,2.137487244990468,-0.06364325480572879
1646167868012447200,12.416447265625,1.9275112001240253,2.219747010526061,0.0901060951218009
1646167868022428200,12.42642822265625,2.122092691981792,2.2630630051612854,0.20644195245616137
1646167868032410000,12.43641015625,2.4181296482324597,2.303013322755694,0.2840009929548949
1646167868042391000,12.44639111328125,2.7990444435626265,2.3063924437999725,0.30547271045278757
1646167868052372000,12.4563720703125,3.229049725276232,2.266219423365593,0.30163561650793996
1646167868062353200,12.466353271484374,3.6576392949730154,2.2409195624142884,0.26704401293508706
1646167868072335000,12.476335205078126,4.023738213965297,2.2011235585987565,0.1894211864851415
1646167868082316300,12.48631640625,4.329467712190747,2.14865453569293,0.12018756432645022
1646167868092297000,12.496296875,4.5139247003972525,2.1080016227871177,0.050070072005316615
1646167868102278000,12.50627783203125,4.571565572983026,2.011824975579977,-0.006774170310050249
1646167868112259000,12.516259033203125,4.564031085824966,1.830173107922077,-0.07404124163612723
1646167868122241000,12.526240966796875,4.423023947766423,1.6454431479930878,-0.12423713197819888
1646167868132221200,12.53622119140625,4.076076888489723,1.4267214866131543,-0.10426847598701715
1646167868142202400,12.546202392578126,3.5917917350560424,1.1806319258362055,-0.03576126840673387
1646167868152183300,12.556183349609375,3.021017215692997,0.9821551801055669,-0.0419392263893038
